Timestamp,Sensor,AccX,AccY,AccZ,GyrX,GyrY,GyrZ,MagX,MagY,MagZ,Temp
2026/04/15 14:29:14.00,IMU,85.94,-404.79,-853.52,-14.54,7.05,0.45,190.65,125.40,1.20,27.5
2026/04/15 14:29:14.10,IMU,96.68,-516.60,-952.64,34.36,4.92,10.27,190.35,125.40,2.25,27.5
2026/04/15 14:29:14.20,IMU,143.55,-491.70,-874.02,1.61,17.38,24.20,190.35,124.20,2.70,27.5
2026/04/15 14:29:14.30,IMU,87.40,-444.34,-741.21,-54.32,8.60,35.37,189.75,123.00,2.40,27.5
2026/04/15 14:29:14.40,IMU,21.97,-329.59,-966.31,-90.65,23.06,39.73,189.45,127.95,1.80,27.3
2026/04/15 14:29:14.50,IMU,60.55,-113.28,-1210.94,-90.05,19.18,32.92,189.75,132.75,2.85,27.5
2026/04/15 14:29:14.60,IMU,24.41,-205.57,-1083.98,32.47,-13.11,12.88,189.60,134.10,4.05,27.5
2026/04/15 14:29:14.70,IMU,72.27,-233.89,-918.46,31.56,19.29,16.36,191.10,131.85,2.25,27.8
2026/04/15 14:29:14.80,IMU,55.66,-188.96,-980.96,-7.85,7.74,11.15,190.65,130.80,2.25,27.6
2026/04/15 14:29:14.90,IMU,62.01,-116.70,-1029.30,-17.24,-15.98,-13.25,190.05,129.90,0.90,27.6
2026/04/15 14:29:15.00,IMU,-76.17,-190.43,-1071.78,5.01,-4.50,-10.64,187.65,129.00,0.60,27.5
2026/04/15 14:29:15.10,IMU,38.09,-220.21,-1069.34,-9.35,0.50,33.11,177.60,121.05,-1.05,27.4
2026/04/15 14:29:15.21,IMU,131.35,-102.54,-997.07,-12.34,-12.11,18.63,179.70,117.75,-0.45,27.5
2026/04/15 14:29:15.31,IMU,103.03,-106.93,-1050.29,-11.47,32.20,14.80,176.55,118.05,-1.05,27.5
2026/04/15 14:29:15.41,IMU,172.36,-117.19,-1111.82,18.83,-68.76,-51.89,174.15,118.20,0.90,27.7
2026/04/15 14:29:15.51,IMU,57.62,-191.89,-950.68,90.81,8.36,9.37,181.95,118.95,-0.90,27.6
2026/04/15 14:29:15.61,IMU,305.18,-161.62,-1243.16,39.44,57.21,-4.31,183.00,119.40,-0.90,27.5
2026/04/15 14:29:15.71,IMU,13.18,-228.52,-1074.22,-37.07,6.50,26.73,181.95,117.45,1.50,27.5
2026/04/15 14:29:15.81,IMU,67.38,-385.74,-868.16,17.85,-39.87,30.27,183.15,118.05,0.00,27.6
2026/04/15 14:29:15.91,IMU,-405.76,-344.24,-896.00,-20.22,14.40,-15.03,182.85,116.10,1.80,27.5
2026/04/15 14:29:16.01,IMU,-143.07,-225.59,-1064.94,1.29,-1.81,-14.50,190.65,130.80,2.70,27.6
2026/04/15 14:29:16.11,IMU,81.54,-251.46,-890.63,13.53,-23.74,-11.89,192.00,131.25,2.10,27.5
2026/04/15 14:29:16.21,IMU,-33.69,-187.01,-952.64,2.45,0.06,-50.85,192.15,129.15,2.25,27.8
2026/04/15 14:29:16.31,IMU,-125.98,-235.84,-941.41,-0.29,-12.26,26.68,192.00,129.00,1.35,27.5
2026/04/15 14:29:16.41,IMU,117.68,-244.63,-939.45,-23.71,31.23,0.09,188.85,123.90,-0.90,27.3
2026/04/15 14:29:16.51,IMU,39.06,-154.30,-966.31,-6.95,17.08,113.25,189.30,123.15,1.50,27.5
2026/04/15 14:29:16.61,IMU,-218.26,-78.61,-1083.50,-53.68,-6.30,74.12,186.45,123.30,1.05,27.5
2026/04/15 14:29:16.71,IMU,-100.10,17.09,-1122.56,-31.49,-19.85,16.80,187.65,124.05,1.35,27.5
2026/04/15 14:29:16.81,IMU,27.83,91.80,-1264.16,1.05,-8.85,57.86,188.85,127.35,0.15,27.6
2026/04/15 14:29:16.91,IMU,-162.60,21.48,-974.12,-13.92,3.66,1.79,187.95,124.05,1.05,27.3
2026/04/15 14:29:17.01,IMU,-97.66,-19.53,-850.59,-10.00,18.97,15.81,188.70,125.25,0.00,27.5
2026/04/15 14:29:17.11,IMU,-107.91,54.69,-1078.13,-24.79,42.82,9.73,186.45,126.75,1.80,27.6
2026/04/15 14:29:17.21,IMU,146.97,71.78,-1019.04,5.97,2.11,-8.79,185.25,125.85,1.20,27.5
2026/04/15 14:29:17.31,IMU,51.27,48.83,-1070.31,-12.52,-11.89,24.08,186.15,125.55,1.80,27.8
2026/04/15 14:29:17.41,IMU,-52.25,74.22,-994.14,-1.67,-22.64,26.70,185.40,121.50,1.80,27.7
2026/04/15 14:29:17.51,IMU,-106.93,28.32,-983.40,-4.02,-10.63,10.91,187.05,123.45,1.95,27.4
2026/04/15 14:29:17.61,IMU,34.67,94.73,-1038.57,9.79,-9.76,1.68,188.40,123.30,0.30,27.6
2026/04/15 14:29:17.71,IMU,-140.63,-5.37,-961.91,72.06,4.18,17.56,187.65,123.00,1.05,27.5
2026/04/15 14:29:17.81,IMU,-32.23,-94.24,-944.82,15.07,-8.50,-2.91,184.80,119.70,0.90,27.8
2026/04/15 14:29:17.91,IMU,-70.80,-36.62,-1063.96,-24.60,-13.81,7.69,188.10,118.65,1.50,27.5
2026/04/15 14:29:18.02,IMU,-105.47,-45.90,-1057.62,8.39,0.27,3.92,186.15,119.55,-0.60,27.5
2026/04/15 14:29:18.12,IMU,-94.73,-22.95,-1043.95,-4.61,-2.35,-0.23,187.35,120.45,0.15,27.5
2026/04/15 14:29:18.22,IMU,-84.47,-32.23,-1032.23,-5.70,0.10,12.31,187.20,119.10,0.00,27.5
2026/04/15 14:29:18.32,IMU,-131.35,-53.71,-1070.31,0.34,-10.71,6.73,188.70,118.35,0.60,27.3
2026/04/15 14:29:18.42,IMU,-60.55,-6.35,-1036.13,1.87,2.44,9.46,188.55,119.40,-0.15,27.6
2026/04/15 14:29:18.52,IMU,-90.33,-42.48,-986.33,2.31,0.66,-0.31,188.70,118.35,0.00,27.4
2026/04/15 14:29:18.62,IMU,-74.71,-61.04,-984.86,3.11,2.71,-1.13,187.95,117.60,0.30,27.5
2026/04/15 14:29:18.72,IMU,-99.12,-35.64,-1024.90,-2.32,1.24,-0.83,186.15,116.85,-1.05,27.6
2026/04/15 14:29:18.82,IMU,-74.71,-29.30,-1012.70,1.29,-0.08,4.16,187.20,118.05,-0.30,27.6
2026/04/15 14:29:18.92,IMU,-91.80,-49.80,-1050.29,1.84,-2.16,1.54,187.35,117.00,0.15,27.7
2026/04/15 14:29:19.02,IMU,-81.54,-44.92,-1100.10,-0.11,-4.30,5.80,187.05,117.45,-0.90,27.6
2026/04/15 14:29:19.12,IMU,-87.40,-63.96,-1035.16,0.66,0.60,2.42,186.90,117.60,-1.35,27.5
2026/04/15 14:29:19.22,IMU,-85.94,-49.32,-1011.72,-0.93,3.69,-1.47,188.10,117.75,0.90,27.7
2026/04/15 14:29:19.32,IMU,-82.52,-61.52,-1002.44,0.69,-1.01,-3.67,187.65,116.55,1.05,27.5
2026/04/15 14:29:19.42,IMU,-82.52,-47.85,-1007.81,-0.65,1.05,-1.55,186.60,118.65,-0.45,27.6
2026/04/15 14:29:19.52,IMU,-86.43,-90.33,-965.33,-1.44,3.84,-1.08,186.90,115.80,0.00,27.8
2026/04/15 14:29:19.62,IMU,-125.98,-120.12,-966.80,0.82,-11.27,-15.50,187.95,118.35,-1.05,27.6
2026/04/15 14:29:19.72,IMU,-223.14,-63.48,-995.61,17.16,13.08,-55.44,187.35,117.00,-0.90,27.6
2026/04/15 14:29:19.82,IMU,-139.16,-119.14,-1130.37,47.72,1.79,-167.88,187.20,119.85,-0.30,27.5
2026/04/15 14:29:19.92,IMU,-124.51,-213.87,-860.84,60.88,-16.05,-191.66,187.20,119.10,1.05,27.5
2026/04/15 14:29:20.02,IMU,112.30,-213.38,-686.04,-7.92,-17.95,-174.37,187.95,124.80,0.30,27.6
2026/04/15 14:29:20.12,IMU,-33.20,-89.84,-1033.20,-30.66,6.01,-218.67,191.70,129.45,4.20,27.5
2026/04/15 14:29:20.22,IMU,341.31,-14.16,-1322.75,-49.51,-69.86,-53.51,202.80,151.95,4.05,27.6
2026/04/15 14:29:20.32,IMU,-227.54,-143.55,-1078.61,37.19,-26.04,29.99,205.50,152.70,5.55,27.5
2026/04/15 14:29:20.42,IMU,106.93,-94.73,-946.78,-17.09,-5.70,2.62,207.15,152.55,5.40,27.5
2026/04/15 14:29:20.52,IMU,-72.75,-41.02,-1093.75,-5.67,-5.43,20.59,207.30,153.45,4.80,27.6
2026/04/15 14:29:20.62,IMU,-4.88,-63.48,-1022.95,-8.07,-6.65,5.24,205.95,152.25,5.40,27.6
2026/04/15 14:29:20.72,IMU,-59.57,-62.99,-1059.08,-5.46,-7.49,-0.62,207.15,154.50,5.70,27.7
2026/04/15 14:29:20.83,IMU,-75.68,-54.69,-1045.90,-0.01,5.60,-8.58,207.30,153.15,5.10,27.5
2026/04/15 14:29:20.93,IMU,-107.91,-72.27,-954.59,1.70,-3.25,17.34,207.60,152.70,6.90,27.5
2026/04/15 14:29:21.03,IMU,-23.44,-50.78,-1035.16,-1.03,7.85,1.97,206.40,152.55,7.80,27.5
2026/04/15 14:29:21.13,IMU,40.04,-55.66,-1030.27,-1.11,9.88,5.73,205.65,153.30,6.45,27.6
2026/04/15 14:29:21.23,IMU,21.97,-41.02,-1014.65,1.11,2.39,5.85,205.80,151.65,6.60,27.5
2026/04/15 14:29:21.33,IMU,-8.79,-60.55,-1013.18,0.02,-2.35,4.69,204.30,152.40,7.35,27.5
2026/04/15 14:29:21.43,IMU,-15.63,-61.52,-1019.53,-3.04,0.94,9.79,205.20,151.05,6.45,27.6
2026/04/15 14:29:21.53,IMU,-25.88,-5.86,-1058.59,3.68,-4.61,-2.15,204.15,152.55,6.75,27.5
2026/04/15 14:29:21.63,IMU,-3.42,-73.24,-1055.66,1.54,3.50,-4.80,204.90,152.25,6.75,27.6
2026/04/15 14:29:21.73,IMU,8.30,-53.71,-978.03,-4.92,-1.24,-1.36,206.10,150.90,7.65,27.5
2026/04/15 14:29:21.83,IMU,10.74,-42.97,-1004.39,-0.65,-6.42,3.29,204.30,150.45,5.10,27.5
2026/04/15 14:29:21.93,IMU,-10.74,-53.71,-1022.95,1.75,-3.78,2.93,204.90,151.35,5.70,27.6
2026/04/15 14:29:22.03,IMU,-15.14,-43.46,-1002.93,-0.53,-4.43,-3.57,204.15,150.60,5.40,27.6
2026/04/15 14:29:22.14,IMU,-20.51,-57.62,-1010.25,0.91,0.19,-7.79,202.35,146.55,10.80,27.7
2026/04/15 14:29:22.24,IMU,-0.98,-62.99,-971.19,1.44,-3.44,-16.03,205.20,150.60,5.40,27.9
2026/04/15 14:29:22.34,IMU,23.44,-61.04,-986.33,0.34,-12.51,-3.53,206.55,150.90,5.55,27.6
2026/04/15 14:29:22.44,IMU,-15.14,-79.10,-995.12,-0.80,-1.95,-7.27,204.45,149.55,5.40,27.6
2026/04/15 14:29:22.54,IMU,-53.22,-85.94,-1098.63,2.47,27.31,0.79,203.55,147.75,5.55,27.6
2026/04/15 14:29:22.64,IMU,-48.34,-77.64,-1045.41,-0.69,0.74,-6.19,203.85,148.35,7.80,27.5
2026/04/15 14:29:22.74,IMU,37.11,-67.87,-830.57,4.45,-1.44,-6.92,201.75,145.50,7.35,27.6
2026/04/15 14:29:22.84,IMU,-34.18,-5.37,-1153.81,1.98,-2.07,-7.61,201.75,144.45,6.30,27.6
2026/04/15 14:29:22.94,IMU,6.35,-89.36,-1022.95,1.63,-8.09,1.16,203.85,144.15,4.20,27.5
2026/04/15 14:29:23.04,IMU,-17.58,-20.02,-1017.09,-2.82,-9.56,9.88,204.15,144.60,4.95,27.6
2026/04/15 14:29:23.14,IMU,-33.20,-46.39,-1064.94,0.66,6.10,14.44,203.25,144.75,5.55,27.6
2026/04/15 14:29:23.24,IMU,-39.06,-80.08,-971.19,2.63,0.94,10.56,200.25,142.95,4.80,27.8
2026/04/15 14:29:23.34,IMU,-69.82,-103.03,-890.63,-2.10,2.04,-21.25,202.65,144.60,3.60,27.6
2026/04/15 14:29:23.44,IMU,-30.76,-28.81,-997.07,-7.50,-1.45,1.85,208.35,150.45,4.80,27.5
2026/04/15 14:29:23.55,IMU,-83.50,-43.95,-1018.07,1.26,-1.99,11.18,206.10,146.70,3.75,27.6
2026/04/15 14:29:23.65,IMU,-79.59,-89.84,-1008.79,0.11,-21.91,-3.16,205.80,145.50,2.25,27.5
2026/04/15 14:29:23.75,IMU,-546.39,-583.50,-1301.76,8.10,5.15,45.92,213.60,122.70,4.50,27.7
2026/04/15 14:29:23.85,IMU,-20.02,-48.83,-1007.32,2.52,36.81,-14.97,187.80,107.55,-5.55,27.5
2026/04/15 14:29:23.95,IMU,-48.34,-79.59,-1017.58,1.60,7.81,-15.13,188.40,112.35,-2.85,27.5
2026/04/15 14:29:24.05,IMU,48.83,-44.92,-998.54,2.99,1.48,-10.21,211.65,138.75,4.80,27.5
2026/04/15 14:29:24.15,IMU,13.18,-68.36,-973.63,0.99,-0.91,2.40,218.85,152.25,6.75,27.5
2026/04/15 14:29:24.25,IMU,-18.55,-59.08,-1043.46,-4.49,-1.19,0.59,219.45,152.70,6.90,27.6
2026/04/15 14:29:24.35,IMU,-8.79,-27.34,-1050.29,0.78,0.89,4.66,219.45,152.40,6.60,27.5
2026/04/15 14:29:24.45,IMU,2.44,-54.20,-1003.42,8.00,-2.08,0.30,218.70,151.20,6.60,27.8
2026/04/15 14:29:24.55,IMU,-7.32,-58.59,-995.12,0.85,-0.11,0.34,219.00,151.20,6.30,27.5
2026/04/15 14:29:24.65,IMU,-18.55,-51.76,-1022.46,-0.54,-2.04,2.53,221.10,151.80,7.20,27.6
2026/04/15 14:29:24.75,IMU,-14.16,-40.53,-1016.11,-2.02,-2.57,0.66,219.30,150.30,7.20,27.6
2026/04/15 14:29:24.85,IMU,-22.95,-50.78,-1024.90,-1.22,1.10,5.49,219.00,151.65,7.35,27.6
2026/04/15 14:29:24.95,IMU,-22.95,-74.71,-1007.81,0.98,4.86,3.37,218.55,152.25,6.00,27.5
2026/04/15 14:29:25.05,IMU,-2.93,-54.20,-1023.44,-0.31,-3.34,2.05,218.10,151.05,5.70,27.6
2026/04/15 14:29:25.15,IMU,-1.95,-48.83,-1005.86,1.47,-3.89,2.73,218.25,151.65,6.30,27.5
2026/04/15 14:29:25.25,IMU,-27.34,-58.59,-1031.74,1.76,4.02,-3.94,219.30,150.60,7.20,27.6
2026/04/15 14:29:25.35,IMU,8.79,-75.68,-1014.16,-2.09,1.69,3.85,219.60,151.05,6.45,27.6
2026/04/15 14:29:25.45,IMU,-59.08,-33.20,-1034.18,-3.50,-0.74,-43.58,219.00,151.65,8.10,27.6
2026/04/15 14:29:25.55,IMU,-15.63,-70.31,-1022.95,0.13,-0.82,1.41,219.60,151.80,7.20,27.3
2026/04/15 14:29:25.65,IMU,-18.55,-48.83,-1021.97,1.93,2.97,3.85,219.75,152.70,6.90,27.7
2026/04/15 14:29:25.75,IMU,-11.72,-59.08,-1016.11,3.15,1.60,-2.24,220.20,151.65,6.60,27.5
2026/04/15 14:29:25.85,IMU,-3.42,-70.31,-1001.95,0.44,-4.10,1.97,220.20,150.15,8.40,27.5
2026/04/15 14:29:25.95,IMU,-31.74,-51.76,-1014.16,-2.11,-0.62,5.03,219.60,150.60,6.45,27.3
2026/04/15 14:29:26.05,IMU,-18.55,-55.66,-1005.37,-0.53,3.30,-1.88,218.25,151.65,6.60,27.5
2026/04/15 14:29:26.15,IMU,-21.97,-49.32,-1091.31,0.11,-0.34,-1.13,218.85,151.80,6.45,27.6
2026/04/15 14:29:26.25,IMU,-2.44,-48.83,-1023.44,1.50,-1.53,-0.91,219.30,151.05,6.45,27.6
2026/04/15 14:29:26.36,IMU,-12.21,-59.57,-1008.30,1.14,-0.41,0.68,220.50,150.45,5.85,27.6
2026/04/15 14:29:26.46,IMU,17.58,-37.11,-925.78,0.21,22.50,1.50,220.35,150.30,5.70,27.5
2026/04/15 14:29:26.56,IMU,0.00,-52.73,-1015.14,-1.02,2.46,4.69,219.30,151.05,6.45,27.5
2026/04/15 14:29:26.66,IMU,-8.79,-40.53,-1021.00,-0.54,-8.16,0.66,218.10,151.35,5.40,27.6
2026/04/15 14:29:26.76,IMU,-8.79,-52.25,-1027.34,0.92,0.50,0.30,220.50,151.20,6.60,27.6
2026/04/15 14:29:26.86,IMU,-32.23,-63.48,-995.61,3.07,5.48,0.17,220.35,150.60,7.50,27.5
2026/04/15 14:29:26.96,IMU,11.23,-61.52,-1024.41,-0.66,2.90,-4.86,219.45,151.95,7.35,27.3
2026/04/15 14:29:27.06,IMU,-2.44,-49.32,-1015.14,1.92,1.47,-6.34,219.90,151.80,6.75,27.6
2026/04/15 14:29:27.16,IMU,-7.32,-62.99,-1016.11,2.40,-0.66,-3.73,219.90,151.35,7.50,27.5
2026/04/15 14:29:27.26,IMU,5.37,-75.68,-998.05,-0.82,2.31,-3.11,221.10,151.80,6.00,27.5
2026/04/15 14:29:27.36,IMU,0.00,-42.48,-1024.41,-1.12,3.85,-5.98,219.90,152.25,7.20,27.5
2026/04/15 14:29:27.46,IMU,5.86,-29.79,-992.68,2.09,-0.71,-2.68,219.75,150.45,6.60,27.6
2026/04/15 14:29:27.56,IMU,6.84,-76.17,-1000.49,1.00,-2.47,-4.57,220.35,151.80,6.75,27.6
2026/04/15 14:29:27.66,IMU,-16.11,-60.55,-1012.21,-1.53,6.31,-5.83,221.40,151.35,7.20,27.6
2026/04/15 14:29:27.76,IMU,4.88,-36.62,-1014.65,0.28,0.74,-6.31,219.90,151.05,7.20,27.6
2026/04/15 14:29:27.86,IMU,26.37,-57.62,-1005.37,2.49,0.65,-4.56,220.95,151.95,6.90,27.7
2026/04/15 14:29:27.96,IMU,-15.63,-58.11,-1008.79,-0.05,-1.95,-5.13,221.25,151.95,5.85,27.6
2026/04/15 14:29:28.06,IMU,-29.30,-39.55,-1023.44,-0.25,-2.42,-2.46,220.50,152.70,6.60,27.6
2026/04/15 14:29:28.16,IMU,6.35,-49.80,-1009.28,4.36,1.27,-2.42,220.95,152.70,7.65,27.5
2026/04/15 14:29:28.26,IMU,-9.77,-59.57,-1005.86,-0.24,3.95,-3.34,221.25,151.20,6.60,27.6
2026/04/15 14:29:28.36,IMU,4.39,-58.11,-1009.77,-1.62,-3.05,-5.07,219.90,151.35,6.75,27.7
2026/04/15 14:29:28.46,IMU,-0.98,-36.62,-1035.16,0.94,-1.40,-1.24,221.70,151.95,6.60,27.5
2026/04/15 14:29:28.56,IMU,-29.30,-49.32,-1015.14,3.11,2.58,-2.28,221.40,151.80,6.75,27.6
2026/04/15 14:29:28.66,IMU,5.86,-66.89,-992.68,0.10,2.60,-3.76,221.70,151.65,6.60,27.5
2026/04/15 14:29:28.76,IMU,30.27,-62.50,-1008.79,-0.27,-1.95,-0.78,221.70,151.95,6.60,27.4
2026/04/15 14:29:28.86,IMU,-31.74,-62.99,-1019.53,1.68,-2.43,-4.47,221.40,152.25,6.75,27.4
2026/04/15 14:29:28.96,IMU,-12.21,-63.96,-1003.42,0.87,-0.91,-0.94,222.15,153.30,5.40,27.5
2026/04/15 14:29:29.07,IMU,8.79,-49.80,-1011.23,-0.49,2.67,-1.74,222.00,151.65,6.60,27.6
2026/04/15 14:29:29.17,IMU,5.37,-47.85,-1021.97,-1.10,-4.31,-1.10,222.75,152.70,7.35,27.5
2026/04/15 14:29:29.27,IMU,-13.18,-50.29,-1001.46,0.68,-3.77,-3.62,220.20,152.40,9.15,27.9
2026/04/15 14:29:29.37,IMU,-8.30,-51.76,-1000.00,1.13,0.83,-0.06,221.40,152.55,5.70,27.6
2026/04/15 14:29:29.47,IMU,-21.00,-50.78,-1023.44,-0.89,0.05,1.38,221.10,152.55,7.20,27.8
2026/04/15 14:29:29.57,IMU,11.72,-52.73,-1007.32,0.80,-2.04,2.76,222.30,153.15,8.10,27.7
2026/04/15 14:29:29.67,IMU,-11.23,-62.99,-1015.63,1.66,2.26,1.63,221.40,151.80,6.00,27.6
2026/04/15 14:29:29.77,IMU,-20.02,-54.20,-1011.72,-0.50,0.53,-1.40,222.15,151.35,5.70,27.8
2026/04/15 14:29:29.87,IMU,18.55,-49.80,-1009.77,-0.20,0.69,1.96,223.05,151.65,6.90,27.6
2026/04/15 14:29:29.97,IMU,7.32,-49.32,-1013.67,2.85,0.29,0.88,221.85,153.00,5.70,27.8
2026/04/15 14:29:30.07,IMU,-19.04,-59.08,-1026.37,1.92,-4.02,-0.72,222.00,151.65,6.60,27.5
2026/04/15 14:29:30.17,IMU,4.39,-53.71,-1005.86,-0.22,0.79,3.56,222.00,151.95,6.30,27.5
2026/04/15 14:29:30.27,IMU,-9.77,-43.46,-1017.09,2.34,2.50,-2.56,217.35,150.60,10.05,27.6
2026/04/15 14:29:30.37,IMU,-3.91,-55.66,-1021.00,1.34,0.01,-1.76,221.40,152.25,7.20,27.6
2026/04/15 14:29:30.47,IMU,19.53,-56.15,-1008.30,1.29,-1.27,2.80,222.60,152.25,6.45,27.6
2026/04/15 14:29:30.57,IMU,-28.81,-54.20,-1017.09,-1.20,1.92,0.39,222.30,152.40,6.60,27.7
2026/04/15 14:29:30.67,IMU,-6.35,-43.95,-1013.67,0.24,0.97,-0.06,222.60,152.25,6.75,27.6
2026/04/15 14:29:30.77,IMU,8.79,-56.64,-998.54,1.88,4.60,1.11,220.95,152.40,7.65,27.2
2026/04/15 14:29:30.87,IMU,4.39,-70.31,-983.40,0.77,-1.48,-1.55,220.35,152.55,6.45,27.5
2026/04/15 14:29:30.97,IMU,-13.67,-34.18,-1025.39,-1.76,-3.05,-0.90,222.30,153.45,7.65,27.8
2026/04/15 14:29:31.07,IMU,39.06,-61.04,-1000.98,3.67,4.94,0.98,222.30,151.20,6.90,27.6
2026/04/15 14:29:31.17,IMU,86.43,-53.71,-1235.35,21.09,58.27,20.31,177.90,101.55,25.35,27.6
2026/04/15 14:29:31.28,IMU,234.86,-73.73,-1177.73,-55.18,123.26,-61.11,102.00,38.40,37.65,27.6
2026/04/15 14:29:31.38,IMU,535.16,27.34,-803.71,-17.13,149.85,-46.50,58.80,29.10,31.65,27.3
2026/04/15 14:29:31.48,IMU,519.04,55.18,-608.89,-7.78,153.57,-49.64,24.90,17.70,23.40,27.6
2026/04/15 14:29:31.58,IMU,822.75,268.07,-433.59,-63.03,196.92,-45.41,8.25,19.80,24.30,27.6
2026/04/15 14:29:31.68,IMU,987.30,313.48,-243.16,-80.85,184.94,-30.25,-1.20,23.70,33.60,27.7
2026/04/15 14:29:31.78,IMU,872.07,279.30,-9.28,-1.66,111.92,39.18,-6.90,25.05,40.65,27.8
2026/04/15 14:29:31.88,IMU,859.86,296.39,307.13,20.82,117.50,2.17,-7.95,24.30,46.80,27.5
2026/04/15 14:29:31.98,IMU,846.19,245.12,489.26,7.76,82.95,20.78,-5.25,25.20,50.70,27.5
2026/04/15 14:29:32.08,IMU,789.55,195.31,500.00,2.38,44.87,14.67,-4.35,23.85,52.20,27.6
2026/04/15 14:29:32.18,IMU,721.68,197.27,676.76,-6.76,35.95,19.45,-4.35,22.65,54.45,27.5
2026/04/15 14:29:32.28,IMU,752.93,153.81,617.68,-18.18,25.37,14.26,-2.85,23.10,56.55,27.6
2026/04/15 14:29:32.38,IMU,682.13,130.86,681.64,-17.47,20.15,5.47,-2.55,22.65,57.75,27.6
2026/04/15 14:29:32.48,IMU,612.30,87.89,722.17,-7.67,17.42,7.77,-2.25,21.75,58.95,27.8
2026/04/15 14:29:32.58,IMU,592.77,92.77,740.23,-11.38,17.11,1.77,0.00,21.90,61.95,27.6
2026/04/15 14:29:32.68,IMU,586.91,52.25,821.29,-4.03,17.89,2.34,-1.05,20.40,62.40,27.5
2026/04/15 14:29:32.79,IMU,584.96,57.62,771.48,-1.94,21.68,1.65,0.15,19.05,62.85,27.2
2026/04/15 14:29:32.89,IMU,569.34,56.15,748.54,-3.68,8.44,0.34,1.95,21.00,64.65,27.8
2026/04/15 14:29:32.99,IMU,559.57,41.02,824.71,1.92,6.47,6.22,-0.15,20.25,64.65,27.6
2026/04/15 14:29:33.09,IMU,575.68,49.32,882.81,0.63,2.60,0.33,0.60,20.85,63.45,27.7
2026/04/15 14:29:33.19,IMU,534.18,64.94,815.43,2.80,-3.58,-6.27,0.90,18.00,64.05,27.5
2026/04/15 14:29:33.29,IMU,554.69,60.55,814.45,0.35,-2.48,-5.79,0.60,22.35,62.40,27.9
2026/04/15 14:29:33.39,IMU,518.07,73.24,804.69,0.46,5.73,-0.49,1.35,20.40,62.40,27.6
2026/04/15 14:29:33.49,IMU,553.22,65.92,795.41,-1.32,-0.06,-3.24,2.55,21.15,64.95,27.8
2026/04/15 14:29:33.59,IMU,564.94,81.54,787.60,-4.21,-0.90,-0.50,2.25,20.25,63.60,27.5
2026/04/15 14:29:33.69,IMU,573.24,68.85,808.11,0.29,-4.81,-1.36,1.80,20.85,63.45,27.6
2026/04/15 14:29:33.79,IMU,557.13,63.48,701.17,10.60,-25.53,0.73,1.05,20.85,61.95,27.6
2026/04/15 14:29:33.89,IMU,811.52,144.04,480.47,35.23,-140.02,43.96,-1.95,20.25,60.45,27.5
2026/04/15 14:29:33.99,IMU,633.79,325.20,712.89,114.44,-175.89,-17.76,-9.00,21.00,49.20,27.3
2026/04/15 14:29:34.09,IMU,1134.28,343.75,39.06,108.02,-248.11,-4.02,-8.25,21.45,30.45,27.5
2026/04/15 14:29:34.19,IMU,566.89,-44.92,-950.20,-156.82,-203.07,109.11,-4.65,19.35,21.60,27.6
2026/04/15 14:29:34.29,IMU,1180.66,178.71,-215.33,-25.34,-199.45,89.26,5.70,17.55,17.40,27.5
2026/04/15 14:29:34.39,IMU,630.86,-25.39,-1047.85,-35.13,-130.26,9.26,19.80,17.40,15.75,27.5
2026/04/15 14:29:34.49,IMU,469.24,140.14,-645.51,-8.47,-127.63,36.58,42.30,26.10,21.15,27.5
2026/04/15 14:29:34.59,IMU,336.91,163.09,-880.37,-7.90,-52.92,14.06,102.75,49.05,25.80,27.6
2026/04/15 14:29:34.69,IMU,90.82,168.95,-1271.97,12.48,-44.93,15.92,207.45,84.60,43.65,27.6
2026/04/15 14:29:34.79,IMU,86.91,8.30,-959.47,29.33,-4.78,-72.08,307.20,100.50,144.60,27.6
2026/04/15 14:29:34.89,IMU,70.31,-8.30,-896.48,14.60,3.41,13.34,321.90,116.55,91.95,27.5
2026/04/15 14:29:34.99,IMU,20.51,-43.46,-1071.78,4.93,-5.98,10.37,306.45,117.30,109.95,27.3
2026/04/15 14:29:35.09,IMU,74.22,52.25,-985.84,14.63,9.76,14.82,310.35,121.95,105.45,27.5
2026/04/15 14:29:35.19,IMU,-198.24,-190.92,-1216.80,3.45,-11.69,22.44,284.40,81.90,73.20,27.8
2026/04/15 14:29:35.29,IMU,81.05,-62.99,-1005.86,5.54,-0.79,3.81,286.05,78.30,66.90,27.5
2026/04/15 14:29:35.39,IMU,81.05,-79.10,-1008.30,-1.40,0.33,5.28,292.05,80.40,68.85,27.5
2026/04/15 14:29:35.50,IMU,76.66,-32.71,-1028.32,-2.79,0.59,7.77,282.00,78.00,66.15,27.5
2026/04/15 14:29:35.60,IMU,52.25,-47.85,-987.79,-0.45,-0.06,10.50,268.35,74.55,57.45,27.7
2026/04/15 14:29:35.70,IMU,27.34,-82.03,-1100.59,-0.28,-6.35,12.67,233.10,63.15,34.05,27.6
2026/04/15 14:29:35.80,IMU,39.06,-52.73,-974.12,1.74,0.07,4.95,235.20,59.70,27.15,27.6
2026/04/15 14:29:35.90,IMU,25.88,-64.94,-1021.48,6.52,15.64,-13.03,262.65,73.65,59.10,27.3
2026/04/15 14:29:36.00,IMU,25.39,-6.84,-1188.96,0.37,2.60,1.09,328.20,108.90,104.25,27.6
2026/04/15 14:29:36.10,IMU,34.67,-89.84,-1022.46,1.04,2.48,-1.33,328.50,107.70,105.30,27.8
2026/04/15 14:29:36.20,IMU,59.08,-62.01,-1004.88,0.24,2.67,-2.97,328.35,107.55,106.20,27.6
2026/04/15 14:29:36.30,IMU,43.95,-60.55,-1007.32,-0.64,5.32,-2.66,329.10,108.30,104.40,27.4
2026/04/15 14:29:36.40,IMU,51.76,-59.57,-1015.14,-2.01,1.04,-3.25,327.30,106.80,105.45,27.6
2026/04/15 14:29:36.50,IMU,43.95,-61.52,-1009.28,1.31,-0.24,-2.58,327.90,108.30,105.90,27.5
2026/04/15 14:29:36.60,IMU,42.48,-46.39,-1011.72,1.93,-2.04,-6.11,328.35,108.30,104.10,27.6
2026/04/15 14:29:36.70,IMU,43.46,-47.85,-1014.16,-0.13,0.50,-1.69,327.90,109.05,104.10,27.5
2026/04/15 14:29:36.80,IMU,55.18,-72.75,-1010.25,-3.50,0.76,0.58,328.65,106.80,106.65,27.6
2026/04/15 14:29:36.90,IMU,46.39,-49.32,-1017.58,-1.79,1.44,0.68,328.20,109.65,104.55,27.5
2026/04/15 14:29:37.00,IMU,44.92,-42.97,-989.26,1.27,-2.22,-0.05,327.00,108.45,105.30,27.6
2026/04/15 14:29:37.10,IMU,40.53,-45.90,-1018.55,-0.50,2.30,0.61,328.50,108.45,104.55,27.6
2026/04/15 14:29:37.20,IMU,52.73,-58.59,-1016.60,-1.44,2.24,-4.55,327.60,107.25,104.85,27.8
2026/04/15 14:29:37.30,IMU,60.55,-58.59,-1018.55,-0.20,1.95,-3.18,329.10,107.55,106.20,27.8
2026/04/15 14:29:37.40,IMU,55.66,-50.78,-1018.07,1.88,-2.37,1.49,328.35,109.80,105.15,27.5
2026/04/15 14:29:37.50,IMU,46.39,-56.64,-1008.79,1.04,0.49,-2.44,326.85,107.55,105.90,27.7
2026/04/15 14:29:37.60,IMU,47.85,-53.71,-1016.60,-0.92,3.00,-0.15,328.65,106.80,104.85,27.5
2026/04/15 14:29:37.70,IMU,45.90,-49.32,-1018.07,0.72,2.95,0.30,328.20,105.90,105.30,27.6
2026/04/15 14:29:37.80,IMU,48.83,-67.87,-1007.81,1.00,-0.25,-1.53,327.00,108.45,104.25,27.7
2026/04/15 14:29:37.90,IMU,49.32,-46.39,-999.51,-0.90,0.35,-2.55,329.10,108.00,103.65,27.5
2026/04/15 14:29:38.00,IMU,33.20,-53.22,-1021.97,-1.61,2.03,-1.89,327.90,107.55,105.90,27.7
2026/04/15 14:29:38.10,IMU,52.73,-46.39,-1016.11,2.15,2.08,1.07,327.60,108.30,105.45,27.6
2026/04/15 14:29:38.20,IMU,60.55,-65.43,-1002.44,1.19,1.53,-1.91,327.45,109.65,105.00,27.6
2026/04/15 14:29:38.31,IMU,52.73,-44.43,-1009.28,-0.38,-0.37,1.44,328.95,109.65,104.55,27.7
2026/04/15 14:29:38.41,IMU,47.85,-53.71,-1017.58,0.61,-0.23,-3.94,326.55,106.80,108.45,27.6
2026/04/15 14:29:38.51,IMU,37.11,-49.32,-1005.37,2.06,0.99,-2.37,328.50,108.90,106.80,27.6
2026/04/15 14:29:38.61,IMU,58.11,-50.78,-1004.39,2.11,0.21,-3.29,327.30,107.55,105.15,27.5
2026/04/15 14:29:38.71,IMU,49.80,-48.83,-1020.02,-0.29,-1.39,-1.44,327.60,108.00,104.85,27.5
2026/04/15 14:29:38.81,IMU,39.55,-62.50,-1004.39,-1.32,1.17,0.08,330.15,108.30,106.65,27.6
2026/04/15 14:29:38.91,IMU,53.71,-64.94,-1007.81,-0.51,1.44,0.63,328.65,107.55,105.45,27.8
2026/04/15 14:29:39.01,IMU,64.45,-58.11,-1009.28,-0.58,2.41,-0.51,327.45,108.45,105.30,27.5
2026/04/15 14:29:39.11,IMU,62.99,-56.15,-1012.70,2.12,-1.50,-0.72,327.90,108.00,105.45,27.5
2026/04/15 14:29:39.21,IMU,38.09,-53.71,-1021.00,2.06,-2.51,-1.75,328.95,108.15,106.80,27.4
2026/04/15 14:29:39.31,IMU,37.60,-68.36,-1012.70,0.36,-1.03,-2.27,329.10,108.00,103.35,27.7
2026/04/15 14:29:39.41,IMU,42.48,-61.04,-1006.35,-2.53,2.82,-2.50,325.80,106.80,109.80,27.7
2026/04/15 14:29:39.51,IMU,56.64,-56.64,-1007.81,1.23,1.00,-1.93,329.40,109.05,105.90,27.6
2026/04/15 14:29:39.61,IMU,47.85,-52.25,-1009.28,0.89,-0.34,-2.90,329.25,108.90,105.75,27.6
2026/04/15 14:29:39.71,IMU,26.86,-54.69,-1010.74,-2.11,1.10,-1.21,327.60,108.75,105.15,27.6
2026/04/15 14:29:39.81,IMU,54.69,-54.69,-1000.00,-1.63,3.25,-3.29,329.25,108.15,104.55,27.7
2026/04/15 14:29:39.91,IMU,59.57,-58.59,-991.70,1.80,0.75,-4.42,329.25,108.15,105.00,27.6
2026/04/15 14:29:40.01,IMU,51.27,-55.18,-1004.88,1.59,-2.63,-2.47,329.70,109.35,103.50,27.5
2026/04/15 14:29:40.11,IMU,37.11,-51.27,-1020.02,-0.08,0.39,-1.49,330.30,108.15,105.30,27.7
2026/04/15 14:29:40.21,IMU,44.92,-60.06,-1010.74,-1.62,3.52,-4.43,329.25,110.10,104.55,27.5
2026/04/15 14:29:40.31,IMU,52.73,-46.88,-1010.74,2.72,-0.72,-3.08,328.95,107.70,105.00,27.4
2026/04/15 14:29:40.42,IMU,54.20,-66.41,-1012.21,-1.55,-0.59,-1.41,330.30,106.95,105.30,27.5
2026/04/15 14:29:40.52,IMU,29.30,-57.13,-1014.65,-3.02,-1.38,-3.15,329.40,109.50,106.95,27.5
2026/04/15 14:29:40.62,IMU,42.97,-53.71,-1010.74,-0.05,1.67,-2.24,329.25,108.90,103.95,27.6
2026/04/15 14:29:40.72,IMU,54.69,-67.38,-1014.16,0.12,2.47,-3.16,329.40,109.05,105.45,27.4
2026/04/15 14:29:40.82,IMU,58.11,-50.78,-1012.21,-0.79,-2.20,-2.47,329.85,109.05,105.15,27.5
2026/04/15 14:29:40.92,IMU,48.83,-56.64,-1014.65,-0.24,1.18,-3.71,330.30,109.35,105.90,27.6
2026/04/15 14:29:41.02,IMU,44.92,-50.29,-1009.28,0.94,-1.61,-0.62,331.05,110.10,104.55,27.5
2026/04/15 14:29:41.12,IMU,49.80,-60.55,-1006.35,-0.76,1.85,-1.37,328.50,110.40,106.05,27.7
2026/04/15 14:29:41.22,IMU,48.83,-54.69,-1007.32,-2.17,-0.28,-4.37,331.05,108.90,106.05,27.5
2026/04/15 14:29:41.32,IMU,42.97,-54.69,-1012.21,-0.98,-1.56,-5.73,330.30,109.65,105.30,27.6
2026/04/15 14:29:41.42,IMU,39.55,-51.27,-1001.95,0.85,-1.53,-2.34,331.35,108.30,104.85,27.3
2026/04/15 14:29:41.52,IMU,33.20,-62.99,-1023.44,1.20,1.76,-2.03,330.30,109.35,106.05,27.6
2026/04/15 14:29:41.62,IMU,53.71,-49.80,-1006.84,0.49,0.06,-1.57,330.90,109.05,106.20,27.5
2026/04/15 14:29:41.72,IMU,66.41,-59.08,-1005.37,2.54,-1.50,-3.62,330.90,108.75,104.10,27.7
2026/04/15 14:29:41.82,IMU,52.25,-63.96,-1013.18,1.62,-2.65,-1.84,331.95,108.00,105.90,27.5
2026/04/15 14:29:41.92,IMU,38.57,-58.11,-1012.70,0.63,1.82,-2.49,330.60,109.50,106.20,27.8
2026/04/15 14:29:42.03,IMU,54.20,-52.25,-1013.18,0.86,1.84,-1.96,331.50,110.85,106.35,27.7
2026/04/15 14:29:42.13,IMU,67.38,-54.69,-1004.88,1.48,0.18,-4.14,331.50,108.90,104.25,27.7
2026/04/15 14:29:42.23,IMU,52.73,-72.27,-1008.79,1.91,-2.34,-6.16,331.65,108.30,105.15,27.5
2026/04/15 14:29:42.33,IMU,48.34,-55.66,-1014.16,0.40,2.26,0.02,331.65,109.05,103.65,27.6
2026/04/15 14:29:42.43,IMU,45.41,-47.36,-999.02,1.82,1.97,-6.02,332.40,108.30,105.45,27.5
2026/04/15 14:29:42.53,IMU,61.04,-53.22,-1000.00,3.17,-1.24,-1.55,331.95,109.05,106.65,27.6
2026/04/15 14:29:42.63,IMU,66.41,-62.01,-1021.00,0.73,0.25,-3.61,331.80,110.40,105.75,27.7
2026/04/15 14:29:42.73,IMU,47.85,-50.29,-1023.44,-2.64,-0.33,-2.49,332.70,108.75,105.15,27.5
2026/04/15 14:29:42.83,IMU,31.25,-57.62,-1017.09,0.21,4.41,-5.25,332.40,109.05,105.45,27.2
2026/04/15 14:29:42.93,IMU,67.38,-53.71,-1007.81,1.34,1.00,-2.11,331.65,109.05,104.85,27.5
2026/04/15 14:29:43.03,IMU,52.25,-52.25,-1011.72,-0.23,-1.87,-1.65,332.40,108.75,104.40,27.3
2026/04/15 14:29:43.13,IMU,38.57,-51.76,-1009.77,-0.03,-0.90,-4.43,331.50,108.90,106.05,27.5
2026/04/15 14:29:43.23,IMU,47.36,-62.50,-1002.93,0.86,2.63,-4.14,333.30,110.40,105.75,27.3
2026/04/15 14:29:43.33,IMU,61.52,-53.22,-1009.77,-0.71,2.27,-3.76,332.55,110.10,105.75,27.5
2026/04/15 14:29:43.43,IMU,67.87,-45.41,-1015.14,0.31,-1.87,-0.51,332.40,109.05,105.45,27.5
2026/04/15 14:29:43.53,IMU,31.74,-69.34,-1023.44,1.09,-1.38,-4.96,333.45,109.50,105.15,27.8
2026/04/15 14:29:43.63,IMU,34.67,-63.48,-1007.32,-0.26,0.40,-3.38,333.30,110.10,105.75,27.5
2026/04/15 14:29:43.73,IMU,59.08,-52.73,-1012.70,0.76,1.08,-1.10,332.70,108.75,105.90,27.5
2026/04/15 14:29:43.83,IMU,55.18,-58.11,-1014.65,-1.81,0.19,-3.76,334.65,110.25,105.45,27.5
2026/04/15 14:29:43.93,IMU,59.57,-59.08,-1017.09,2.63,-3.74,-2.62,335.10,109.35,105.00,27.5
2026/04/15 14:29:44.03,IMU,59.57,-57.13,-1009.77,0.42,-0.12,-6.98,333.90,110.25,105.45,27.6
2026/04/15 14:29:44.13,IMU,43.46,-54.69,-1006.35,-0.20,3.96,-3.45,332.70,109.80,105.15,27.6
2026/04/15 14:29:44.23,IMU,41.02,-50.29,-1015.14,0.14,1.60,-1.60,334.05,108.45,106.80,27.6
2026/04/15 14:29:44.33,IMU,59.08,-56.15,-1008.79,2.85,-1.17,-5.38,333.90,109.50,104.40,27.6
2026/04/15 14:29:44.43,IMU,41.50,-58.59,-1022.46,-2.92,-2.59,-2.08,334.35,109.65,106.35,27.8
2026/04/15 14:29:44.53,IMU,90.33,-11.72,-1009.77,1.45,0.18,1.81,335.70,109.50,105.15,27.5
2026/04/15 14:29:44.63,IMU,132.81,-53.22,-1021.48,-0.56,-7.99,16.35,334.95,108.75,104.85,27.6
2026/04/15 14:29:44.73,IMU,30.27,-68.36,-1042.97,-0.49,-7.54,42.16,333.45,108.30,105.45,27.6
2026/04/15 14:29:44.84,IMU,-5.37,-49.32,-1009.28,-8.23,8.89,36.60,333.60,109.65,105.30,27.5
2026/04/15 14:29:44.94,IMU,-74.22,-53.71,-1011.23,6.61,11.27,12.16,333.90,109.80,105.15,27.5
2026/04/15 14:29:45.04,IMU,13.18,-76.66,-1055.66,2.24,27.71,-8.05,330.75,110.10,104.55,27.5
2026/04/15 14:29:45.14,IMU,201.66,-15.63,-882.32,-0.28,-8.40,3.21,327.75,109.35,106.35,27.5
2026/04/15 14:29:45.24,IMU,22.95,-101.07,-1006.84,-2.47,-18.94,10.04,330.90,111.00,105.90,27.5
2026/04/15 14:29:45.34,IMU,-29.30,-35.16,-1085.45,-6.77,2.60,8.18,330.90,110.55,106.20,27.5
2026/04/15 14:29:45.44,IMU,23.44,-28.81,-997.56,5.44,19.79,8.50,329.70,110.40,105.75,27.3
2026/04/15 14:29:45.54,IMU,134.77,-83.01,-966.80,3.62,3.95,10.24,327.90,109.50,104.85,27.3
2026/04/15 14:29:45.64,IMU,-4.88,-50.78,-930.18,-7.87,-17.97,12.65,328.20,111.15,104.55,27.3
2026/04/15 14:29:45.74,IMU,7.81,-40.04,-1063.96,-1.42,-9.10,-1.88,328.50,110.10,106.35,27.5
2026/04/15 14:29:45.84,IMU,129.39,-23.93,-956.05,6.89,0.38,-6.31,330.30,109.35,105.75,27.6
2026/04/15 14:29:45.94,IMU,-8.30,-100.59,-987.30,0.15,8.58,6.73,329.40,110.25,105.90,27.3
2026/04/15 14:29:46.04,IMU,28.81,-31.25,-1050.78,-10.75,0.46,2.30,329.70,109.35,106.80,27.5
2026/04/15 14:29:46.14,IMU,101.07,-7.32,-1001.46,4.97,-0.51,1.27,327.75,109.65,106.35,27.3
2026/04/15 14:29:46.24,IMU,45.41,-86.91,-992.68,8.19,3.18,2.63,328.20,108.90,107.10,27.6
2026/04/15 14:29:46.34,IMU,36.62,-80.57,-1030.27,-8.12,-7.66,1.80,329.25,110.10,106.05,27.5
2026/04/15 14:29:46.44,IMU,104.98,15.14,-963.87,-6.11,-2.25,30.30,329.25,110.40,106.35,27.6
2026/04/15 14:29:46.54,IMU,43.46,-54.20,-1015.63,8.79,6.95,22.10,328.35,109.80,105.45,27.6
2026/04/15 14:29:46.64,IMU,30.76,-112.30,-995.12,-4.21,-1.50,-3.82,326.85,109.80,104.85,27.5
2026/04/15 14:29:46.74,IMU,94.24,-12.70,-1019.53,-5.76,-3.03,-10.14,327.60,110.55,106.20,27.1
2026/04/15 14:29:46.84,IMU,20.02,-35.64,-1049.32,5.08,3.31,-7.38,328.50,110.85,105.75,27.5
2026/04/15 14:29:46.94,IMU,43.46,-68.85,-1004.88,4.81,5.18,-12.84,327.90,109.50,105.90,27.3
2026/04/15 14:29:47.04,IMU,110.35,-83.01,-1000.00,3.82,6.54,-4.52,327.90,109.05,104.85,27.5
2026/04/15 14:29:47.14,IMU,43.46,-69.82,-1027.83,-1.40,-3.88,-8.08,328.95,108.90,107.55,27.5
2026/04/15 14:29:47.24,IMU,19.04,-29.30,-1013.67,-1.08,-5.88,-7.50,328.20,110.10,105.75,27.6
2026/04/15 14:29:47.34,IMU,114.26,-53.22,-1058.59,7.82,6.52,1.35,329.40,109.50,104.85,27.3
2026/04/15 14:29:47.44,IMU,144.04,-102.05,-979.49,-4.50,5.89,6.18,329.25,108.90,105.75,27.6
2026/04/15 14:29:47.55,IMU,150.88,-51.27,-1042.48,-6.99,1.54,4.80,325.65,108.15,108.90,27.5
2026/04/15 14:29:47.65,IMU,150.88,-10.25,-1027.34,4.40,9.84,-0.96,329.10,108.75,104.10,27.6
2026/04/15 14:29:47.75,IMU,152.83,-70.80,-1000.98,3.50,10.66,-4.37,329.10,109.80,104.40,27.3
2026/04/15 14:29:47.85,IMU,185.06,-50.78,-1019.53,-3.32,8.34,-0.80,327.30,109.80,105.15,27.5
2026/04/15 14:29:47.95,IMU,230.96,4.39,-1033.20,-1.81,16.19,6.08,326.85,110.55,105.45,27.3
2026/04/15 14:29:48.05,IMU,187.50,-62.50,-890.14,1.53,16.44,18.85,325.65,109.65,106.05,27.5
2026/04/15 14:29:48.15,IMU,137.21,-64.94,-1069.34,-1.79,-0.37,-3.40,324.90,108.90,105.75,27.5
2026/04/15 14:29:48.25,IMU,137.70,-44.43,-1011.72,1.15,0.79,-24.06,324.30,110.55,106.65,27.6
2026/04/15 14:29:48.35,IMU,104.98,-33.20,-1030.76,-0.57,18.08,-7.35,324.15,110.40,106.05,27.5
2026/04/15 14:29:48.45,IMU,217.77,-42.48,-929.20,-1.40,29.11,0.44,322.65,110.10,105.00,27.6
2026/04/15 14:29:48.55,IMU,262.21,-92.77,-994.14,5.25,9.66,16.66,318.15,107.70,111.45,27.5
2026/04/15 14:29:48.65,IMU,252.93,-46.39,-959.47,-6.73,0.71,26.13,321.90,110.85,106.05,27.3
2026/04/15 14:29:48.75,IMU,216.80,-23.93,-989.26,-10.08,15.67,29.89,321.15,107.40,106.80,27.5
2026/04/15 14:29:48.85,IMU,268.55,-54.69,-952.64,-1.17,15.65,7.97,318.15,109.65,107.10,27.5
2026/04/15 14:29:48.95,IMU,297.85,-56.64,-1003.91,1.81,-7.63,-4.34,318.90,110.10,108.90,27.5
2026/04/15 14:29:49.05,IMU,207.03,-72.75,-957.03,3.08,-7.82,-10.40,319.50,110.25,109.80,27.7
2026/04/15 14:29:49.15,IMU,228.03,-100.59,-962.40,1.84,6.82,-11.98,319.80,110.55,108.75,27.6
2026/04/15 14:29:49.25,IMU,294.92,-72.75,-1007.81,-0.09,11.80,-4.55,320.40,111.15,108.60,27.4
2026/04/15 14:29:49.35,IMU,311.52,-79.59,-952.64,3.85,-3.60,-12.84,323.40,113.10,111.75,27.7
2026/04/15 14:29:49.45,IMU,304.69,-44.92,-931.15,-2.62,0.08,-18.10,322.95,115.80,114.00,27.6
2026/04/15 14:29:49.56,IMU,337.40,-21.00,-991.70,5.92,8.33,-9.37,321.15,113.40,120.90,27.6
2026/04/15 14:29:49.66,IMU,398.44,-49.80,-933.11,-1.94,4.00,3.72,325.20,117.60,117.90,27.7
2026/04/15 14:29:49.76,IMU,375.00,-32.23,-937.01,-6.36,9.85,10.48,325.05,119.70,120.60,27.6
2026/04/15 14:29:49.86,IMU,322.75,-19.53,-933.11,3.72,7.44,-2.97,323.40,121.50,122.25,27.5
2026/04/15 14:29:49.96,IMU,354.00,-31.74,-951.17,5.89,-6.76,-15.97,323.55,122.40,120.60,27.6
2026/04/15 14:29:50.06,IMU,299.32,-24.90,-953.13,-2.89,-4.82,0.28,325.05,121.95,121.05,27.5
2026/04/15 14:29:50.16,IMU,276.86,-39.06,-963.38,-6.27,9.73,4.75,324.15,121.50,121.50,27.5
2026/04/15 14:29:50.26,IMU,348.14,-3.42,-951.66,-1.38,9.91,4.69,325.05,120.45,122.40,27.5
2026/04/15 14:29:50.36,IMU,367.19,-54.69,-944.34,3.21,7.53,-7.69,324.15,122.25,123.00,27.5
2026/04/15 14:29:50.46,IMU,378.91,-38.09,-934.57,6.11,3.57,-6.86,323.70,125.55,124.05,27.6
2026/04/15 14:29:50.56,IMU,416.02,-43.46,-918.46,1.10,2.95,-3.97,322.05,128.85,125.70,27.6
2026/04/15 14:29:50.66,IMU,385.74,-40.53,-926.76,-4.36,4.34,5.50,321.00,131.55,126.00,27.5
2026/04/15 14:29:50.76,IMU,358.40,-46.39,-960.45,-1.63,-1.53,6.08,320.25,134.10,123.90,27.6
2026/04/15 14:29:50.87,IMU,394.53,-39.55,-928.71,1.33,7.95,-10.59,320.10,132.75,123.00,27.2
2026/04/15 14:29:50.97,IMU,434.57,5.86,-894.04,-4.11,11.34,-10.21,315.90,137.55,122.40,27.6
2026/04/15 14:29:51.07,IMU,437.50,-21.97,-905.76,-1.04,10.03,7.88,309.15,142.50,114.45,27.5
2026/04/15 14:29:51.17,IMU,439.94,-6.35,-876.46,-3.50,11.21,-6.60,305.55,143.25,113.10,27.6
2026/04/15 14:29:51.27,IMU,431.15,18.55,-920.41,2.45,-1.49,-4.01,299.10,145.35,103.50,27.6
2026/04/15 14:29:51.37,IMU,393.07,-6.35,-926.76,6.69,-8.22,-1.31,299.25,146.70,99.75,27.6
2026/04/15 14:29:51.47,IMU,447.75,-5.86,-895.02,1.27,1.71,2.79,297.75,145.20,97.95,27.5
2026/04/15 14:29:51.57,IMU,445.31,-18.55,-920.90,-2.28,8.59,6.60,297.30,147.30,97.80,27.5
2026/04/15 14:29:51.67,IMU,428.71,-22.46,-896.97,-4.65,11.69,6.24,294.00,146.55,92.40,27.3
2026/04/15 14:29:51.77,IMU,462.89,14.16,-922.85,1.48,1.82,-1.54,290.40,147.45,82.35,27.8
2026/04/15 14:29:51.87,IMU,428.22,-16.11,-877.93,3.48,6.90,-1.56,288.00,148.05,76.50,27.5
2026/04/15 14:29:51.97,IMU,432.13,-32.23,-882.81,0.02,3.61,-1.60,286.50,148.35,73.95,27.5
2026/04/15 14:29:52.07,IMU,466.80,-11.23,-911.62,-2.29,-6.76,1.76,286.20,148.80,71.40,27.6
2026/04/15 14:29:52.17,IMU,437.01,-13.67,-880.37,-5.03,8.64,2.33,286.35,148.95,68.25,27.6
2026/04/15 14:29:52.27,IMU,404.79,0.00,-878.42,4.86,5.07,-4.48,285.30,150.15,66.45,27.7
2026/04/15 14:29:52.37,IMU,437.01,-38.09,-885.25,4.73,-7.58,-2.89,284.55,150.45,64.35,27.5
2026/04/15 14:29:52.47,IMU,366.21,-19.53,-909.67,-5.31,-8.16,-0.47,286.20,148.35,60.90,27.5
2026/04/15 14:29:52.57,IMU,489.26,42.48,-947.27,-1.37,-0.44,3.15,286.05,148.20,56.70,27.6
2026/04/15 14:29:52.67,IMU,475.10,21.48,-890.63,5.31,1.31,-11.87,285.45,148.80,50.10,27.6
2026/04/15 14:29:52.77,IMU,467.29,18.07,-883.30,4.15,5.53,-5.95,288.45,150.60,43.95,27.5
2026/04/15 14:29:52.87,IMU,505.37,-16.11,-899.90,-3.37,-4.91,-0.47,292.80,149.85,38.85,27.3
2026/04/15 14:29:52.97,IMU,435.06,10.74,-918.46,-6.27,3.01,2.73,298.20,151.95,37.35,27.5
2026/04/15 14:29:53.07,IMU,516.60,41.02,-897.95,-1.18,8.67,-5.81,313.05,152.55,38.55,27.3
2026/04/15 14:29:53.17,IMU,499.02,26.86,-868.16,-0.41,6.64,-3.17,330.60,154.20,48.15,27.6
2026/04/15 14:29:53.27,IMU,416.50,6.35,-910.64,1.36,-2.41,-2.58,337.65,156.00,50.85,27.5
2026/04/15 14:29:53.37,IMU,464.84,7.81,-903.81,-0.36,-3.91,3.86,336.75,156.90,49.50,27.3
2026/04/15 14:29:53.47,IMU,449.22,17.58,-876.46,-0.59,2.97,1.23,342.00,156.90,54.30,27.3
2026/04/15 14:29:53.57,IMU,509.77,35.16,-871.09,-0.65,3.90,-6.95,366.00,162.00,71.10,27.5
2026/04/15 14:29:53.68,IMU,529.79,43.46,-883.79,0.34,5.78,-6.94,398.10,169.65,100.95,27.8
2026/04/15 14:29:53.78,IMU,490.23,43.95,-875.00,0.20,2.21,-1.87,432.60,180.60,138.90,27.4
2026/04/15 14:29:53.88,IMU,474.12,33.69,-878.42,0.50,0.29,-2.49,441.90,181.80,151.95,27.5
2026/04/15 14:29:53.98,IMU,462.40,30.27,-888.18,1.49,0.18,2.85,443.85,183.45,151.35,27.6
2026/04/15 14:29:54.08,IMU,335.45,-37.11,-828.61,-1.89,-9.01,-8.02,444.60,183.90,153.45,27.5
2026/04/15 14:29:54.18,IMU,33.69,-11.72,-983.40,6.27,11.58,-45.83,394.05,166.95,92.70,27.5
2026/04/15 14:29:54.28,IMU,101.56,-51.76,-920.90,5.76,8.40,-43.92,395.25,167.25,91.35,27.5
2026/04/15 14:29:54.38,IMU,225.59,-5.37,-952.15,14.54,-42.03,-45.19,397.35,166.95,92.70,27.5
2026/04/15 14:29:54.48,IMU,97.66,0.49,-1082.03,24.86,-54.89,-45.59,401.25,168.00,87.75,27.6
2026/04/15 14:29:54.58,IMU,-90.33,-92.77,-1127.44,24.57,-32.13,-38.18,394.05,164.70,72.15,27.6
2026/04/15 14:29:54.68,IMU,125.49,-35.16,-1140.14,23.89,-18.82,-38.50,375.75,157.65,51.30,27.6
2026/04/15 14:29:54.78,IMU,229.00,33.69,-1271.00,39.51,-27.56,-39.30,378.45,156.60,51.30,27.5
2026/04/15 14:29:54.88,IMU,10.25,-82.52,-1206.54,46.78,-61.54,-40.88,382.80,152.40,49.95,27.5
2026/04/15 14:29:54.98,IMU,-64.94,-95.21,-1222.17,34.28,-38.04,-36.82,384.30,150.15,49.95,27.5
2026/04/15 14:29:55.08,IMU,140.63,8.30,-1204.59,36.10,-6.37,-35.68,377.85,146.10,43.20,27.6
2026/04/15 14:29:55.18,IMU,163.09,-41.99,-1134.28,50.12,-22.86,-41.28,378.15,142.65,39.60,27.5
2026/04/15 14:29:55.28,IMU,10.25,-117.19,-1078.13,39.02,-44.26,-37.98,381.15,138.90,37.80,27.5
2026/04/15 14:29:55.38,IMU,-0.98,-71.78,-1042.97,23.84,-18.99,-36.35,380.40,133.95,36.00,27.6
2026/04/15 14:29:55.48,IMU,11.72,-28.81,-1009.77,24.12,15.79,-38.63,378.90,129.75,33.45,27.5
2026/04/15 14:29:55.58,IMU,112.79,-82.52,-940.92,26.47,1.78,-37.78,377.10,127.05,32.70,27.6
2026/04/15 14:29:55.68,IMU,140.63,-92.29,-849.12,8.08,-18.03,-37.74,374.10,122.25,36.00,27.2
2026/04/15 14:29:55.78,IMU,-51.27,-86.91,-904.30,-7.88,-14.07,-36.43,376.80,122.25,32.70,27.3
2026/04/15 14:29:55.88,IMU,-21.97,-46.88,-940.92,-11.49,6.73,-37.96,374.40,121.20,30.00,27.5
2026/04/15 14:29:55.98,IMU,114.26,-69.82,-927.73,-17.21,28.45,-38.72,372.45,121.95,29.70,27.5
2026/04/15 14:29:56.08,IMU,119.63,-101.56,-985.35,-27.59,-9.06,-35.23,371.55,121.50,29.55,27.5
2026/04/15 14:29:56.18,IMU,80.57,-70.80,-1044.43,-36.51,-32.24,-37.20,371.70,124.65,30.45,27.5
2026/04/15 14:29:56.28,IMU,-13.67,-33.20,-1122.07,-42.67,-4.79,-36.66,370.95,126.60,30.45,27.5
2026/04/15 14:29:56.39,IMU,34.67,-54.20,-1182.62,-45.03,9.84,-36.58,372.00,128.25,32.40,27.5
2026/04/15 14:29:56.49,IMU,219.24,-43.95,-1145.51,-45.48,-22.56,-36.18,370.65,128.40,33.60,27.5
2026/04/15 14:29:56.59,IMU,103.52,-48.83,-1227.05,-40.18,-39.41,-36.94,372.30,129.75,34.65,27.4
2026/04/15 14:29:56.69,IMU,-84.96,-84.96,-1213.87,-43.61,-13.92,-30.95,371.25,129.45,35.70,27.2
2026/04/15 14:29:56.79,IMU,71.78,-52.25,-1149.41,-44.65,-1.59,-32.46,373.05,132.45,32.10,27.3
2026/04/15 14:29:56.89,IMU,202.64,-12.21,-1103.03,-29.26,-22.61,-35.48,373.95,134.55,33.00,27.4
2026/04/15 14:29:56.99,IMU,20.51,-64.45,-1055.18,-21.50,-37.23,-32.46,378.00,134.55,34.80,27.4
2026/04/15 14:29:57.09,IMU,-81.54,-54.20,-1023.93,-26.16,-23.83,-31.50,379.50,134.70,36.00,27.5
2026/04/15 14:29:57.19,IMU,47.85,1.46,-981.93,-19.33,6.14,-33.60,378.75,134.85,34.05,27.2
2026/04/15 14:29:57.29,IMU,82.03,6.35,-956.54,-0.53,5.16,-29.85,379.65,135.45,36.45,27.3
2026/04/15 14:29:57.39,IMU,105.47,-53.22,-897.46,8.64,-18.60,-31.39,380.25,132.30,35.70,26.8
2026/04/15 14:29:57.49,IMU,-2.44,-45.90,-931.15,4.76,-8.52,-31.78,381.00,130.35,35.55,27.3
2026/04/15 14:29:57.59,IMU,-84.47,-18.55,-999.51,8.96,23.02,-33.48,378.00,128.40,34.35,27.0
2026/04/15 14:29:57.69,IMU,83.50,-0.98,-977.54,21.15,37.31,-33.61,373.95,125.10,32.25,27.3
2026/04/15 14:29:57.79,IMU,129.39,-50.29,-1027.83,23.66,26.45,-33.80,371.25,121.80,28.80,27.2
2026/04/15 14:29:57.89,IMU,7.81,-53.71,-1108.40,19.05,13.13,-37.38,369.90,118.65,30.00,27.5
2026/04/15 14:29:57.99,IMU,-31.25,-5.86,-1225.59,18.54,40.38,-36.75,366.90,115.95,26.85,27.5
2026/04/15 14:29:58.09,IMU,76.66,-41.50,-1153.81,20.86,66.11,-36.85,363.30,112.95,27.60,27.4
2026/04/15 14:29:58.19,IMU,115.72,-53.22,-1167.48,15.90,41.03,-37.53,355.80,111.90,26.70,27.0
2026/04/15 14:29:58.29,IMU,63.48,-57.62,-1199.22,16.02,24.31,-40.76,354.60,110.85,25.95,27.5
2026/04/15 14:29:58.39,IMU,2.93,-69.34,-1163.57,9.41,48.76,-42.33,352.05,109.65,26.25,27.0
2026/04/15 14:29:58.49,IMU,50.78,-54.20,-1115.72,3.50,64.10,-37.13,348.00,108.15,24.15,27.4
2026/04/15 14:29:58.59,IMU,149.41,-37.11,-1059.08,4.76,31.50,-42.89,343.20,107.40,22.65,27.3
2026/04/15 14:29:58.69,IMU,114.75,-42.48,-1013.18,6.91,10.62,-41.63,339.45,108.00,21.45,27.3
2026/04/15 14:29:58.80,IMU,-23.93,-67.87,-971.68,-1.83,20.92,-41.21,337.65,106.95,22.65,27.5
2026/04/15 14:29:58.90,IMU,52.25,-20.51,-920.41,-6.08,25.69,-44.20,332.40,108.30,21.00,27.5
2026/04/15 14:29:59.00,IMU,168.46,-11.72,-903.81,1.69,15.31,-40.64,328.95,110.40,23.10,27.4
2026/04/15 14:29:59.10,IMU,105.96,-50.78,-898.44,11.47,-17.91,-41.24,330.15,109.50,22.05,27.5
2026/04/15 14:29:59.20,IMU,77.15,-47.85,-933.11,6.44,-31.89,-41.15,327.90,111.75,22.80,27.3
2026/04/15 14:29:59.30,IMU,16.60,-29.79,-992.19,4.61,-11.02,-39.71,329.70,111.60,20.55,27.5
2026/04/15 14:29:59.40,IMU,78.61,-1.46,-1021.00,19.21,-14.85,-36.10,328.95,112.35,23.10,27.1
2026/04/15 14:29:59.50,IMU,181.15,-36.13,-1050.29,32.43,-35.18,-40.45,331.95,113.25,24.00,27.3
2026/04/15 14:29:59.60,IMU,77.64,-70.31,-1101.07,27.31,-46.39,-39.85,333.30,111.60,23.40,27.0
2026/04/15 14:29:59.70,IMU,-23.44,-32.23,-1207.03,30.89,-34.34,-39.25,335.85,110.85,24.90,27.3
2026/04/15 14:29:59.80,IMU,104.49,-2.93,-1214.36,40.14,-17.24,-39.32,334.05,111.90,26.70,27.2
2026/04/15 14:29:59.90,IMU,175.29,-48.83,-1177.73,44.89,-29.87,-40.44,334.80,110.10,26.25,27.3
2026/04/15 14:30:00.00,IMU,43.46,-79.10,-1172.85,41.02,-43.24,-39.02,333.90,106.50,26.10,27.3
2026/04/15 14:30:00.10,IMU,-21.00,-44.43,-1173.34,38.98,-22.73,-41.09,333.30,106.65,24.15,27.3
2026/04/15 14:30:00.20,IMU,92.29,-57.62,-1074.71,37.53,3.09,-39.01,333.00,105.45,25.50,27.4
2026/04/15 14:30:00.30,IMU,119.63,-77.15,-1026.86,35.21,-9.89,-37.89,333.00,102.75,29.10,27.3
2026/04/15 14:30:00.40,IMU,65.92,-57.13,-996.58,31.66,-25.65,-38.99,331.65,101.85,27.90,27.3
2026/04/15 14:30:00.50,IMU,-1.95,-79.59,-955.08,19.46,-8.21,-38.21,331.95,99.90,29.70,27.5
2026/04/15 14:30:00.60,IMU,-19.04,-82.52,-925.78,8.08,14.08,-37.21,329.40,99.60,28.65,27.3
2026/04/15 14:30:00.70,IMU,126.46,-53.71,-909.67,1.18,8.21,-36.64,328.35,101.10,31.20,27.1
2026/04/15 14:30:00.80,IMU,111.82,-71.29,-899.90,-1.05,-8.11,-40.08,326.55,102.60,29.40,27.5
2026/04/15 14:30:00.90,IMU,9.77,-104.49,-934.57,-13.33,-16.71,-35.82,325.05,106.05,29.70,27.1
2026/04/15 14:30:01.00,IMU,11.72,-67.38,-988.28,-29.52,2.69,-37.37,324.90,106.20,28.05,27.3
2026/04/15 14:30:01.10,IMU,73.24,-34.67,-1043.46,-31.04,13.38,-31.78,323.85,110.25,27.15,27.0
2026/04/15 14:30:01.20,IMU,129.88,-77.64,-1067.38,-29.13,-13.91,-33.47,323.55,114.75,27.60,27.5
2026/04/15 14:30:01.30,IMU,83.01,-104.00,-1122.07,-37.82,-30.98,-31.40,322.20,119.10,26.25,27.3
2026/04/15 14:30:01.40,IMU,-15.14,-67.38,-1166.02,-43.04,-11.98,-31.43,324.60,122.70,25.35,27.3
2026/04/15 14:30:01.50,IMU,49.80,-37.60,-1197.27,-39.36,-2.77,-33.06,326.55,127.35,25.80,27.2
2026/04/15 14:30:01.60,IMU,175.78,-61.52,-1159.18,-34.95,-22.63,-29.21,327.75,129.75,28.80,27.1
2026/04/15 14:30:01.71,IMU,74.22,-51.27,-1140.63,-37.73,-35.40,-29.50,328.65,132.60,28.95,27.5
2026/04/15 14:30:01.81,IMU,-49.80,-28.81,-1161.62,-31.63,-19.63,-30.05,330.90,134.55,27.15,27.1
2026/04/15 14:30:01.91,IMU,75.68,-34.67,-1052.25,-24.26,-3.95,-26.27,331.80,136.20,26.70,27.1
2026/04/15 14:30:02.01,IMU,147.46,-38.57,-990.72,-19.67,-13.16,-24.46,331.95,139.80,26.10,27.3
2026/04/15 14:30:02.11,IMU,48.34,-17.09,-950.20,-14.04,-32.89,-26.73,335.40,144.00,25.80,27.1
2026/04/15 14:30:02.21,IMU,-16.60,20.51,-967.29,-6.11,-18.30,-28.12,338.10,144.90,26.25,27.2
2026/04/15 14:30:02.31,IMU,-6.84,-51.27,-942.38,-0.65,12.37,-27.11,338.85,146.10,24.90,27.1
2026/04/15 14:30:02.41,IMU,52.25,19.53,-1084.47,5.75,13.24,-25.89,340.50,147.00,26.10,27.0
2026/04/15 14:30:02.51,IMU,118.16,26.86,-925.29,12.35,-0.83,-27.53,339.90,146.10,26.70,27.2
2026/04/15 14:30:02.61,IMU,-7.81,-62.01,-896.00,17.88,4.81,-26.14,339.00,146.25,27.15,27.2
2026/04/15 14:30:02.71,IMU,-34.18,-64.45,-1064.45,15.81,29.84,-27.55,339.60,143.40,24.90,26.9
2026/04/15 14:30:02.81,IMU,71.78,-4.39,-1102.54,17.22,46.44,-30.33,337.20,144.45,28.65,27.3
2026/04/15 14:30:02.91,IMU,113.28,-46.88,-1099.12,24.68,34.08,-27.44,337.05,142.65,29.55,26.8
2026/04/15 14:30:03.01,IMU,43.46,-94.24,-1086.43,24.06,21.47,-31.32,337.20,143.25,31.20,27.1
2026/04/15 14:30:03.11,IMU,9.28,-66.41,-1234.86,16.47,43.06,-27.91,336.60,141.90,27.75,27.3
2026/04/15 14:30:03.21,IMU,75.68,-7.81,-1141.60,17.01,58.75,-29.66,335.85,142.65,28.50,27.5
2026/04/15 14:30:03.31,IMU,125.49,-63.48,-1143.55,18.16,40.43,-31.01,332.40,142.05,29.40,27.2
2026/04/15 14:30:03.41,IMU,94.73,-57.13,-1113.77,13.54,21.85,-30.63,331.80,141.15,27.75,27.3
2026/04/15 14:30:03.51,IMU,20.51,-46.88,-1094.24,5.93,35.44,-29.53,328.50,141.15,29.10,27.0
2026/04/15 14:30:03.61,IMU,42.48,-39.55,-1035.16,4.83,44.60,-31.73,329.40,143.25,30.00,27.2
2026/04/15 14:30:03.71,IMU,160.64,-49.80,-969.73,7.49,28.66,-33.24,325.20,143.85,32.70,27.1
2026/04/15 14:30:03.81,IMU,105.96,-65.43,-934.57,2.34,2.12,-32.59,324.45,144.60,33.45,27.0
2026/04/15 14:30:03.91,IMU,37.11,-48.34,-947.75,0.05,-4.78,-30.44,327.00,144.90,33.90,27.1
2026/04/15 14:30:04.01,IMU,55.18,-35.16,-930.66,-0.13,6.78,-33.26,328.20,146.55,34.95,27.4
2026/04/15 14:30:04.11,IMU,105.96,-41.99,-912.11,4.08,4.80,-31.87,330.75,148.35,34.65,27.3
2026/04/15 14:30:04.21,IMU,134.28,-45.90,-933.11,4.92,-28.92,-32.47,330.90,148.95,34.80,27.2
2026/04/15 14:30:04.31,IMU,60.06,-39.55,-1008.30,8.81,-41.35,-29.30,333.60,150.60,32.70,27.5
2026/04/15 14:30:04.41,IMU,-5.37,-58.11,-1064.45,10.47,-32.56,-30.18,337.65,150.60,31.65,27.3
2026/04/15 14:30:04.51,IMU,92.29,-45.41,-1099.61,14.19,-21.97,-28.59,340.35,150.30,31.35,27.2
2026/04/15 14:30:04.62,IMU,160.64,-23.93,-1113.77,20.27,-38.21,-24.97,343.80,150.15,30.75,27.3
2026/04/15 14:30:04.72,IMU,64.94,-55.18,-1144.04,24.59,-51.89,-27.29,347.85,148.95,29.70,27.3
2026/04/15 14:30:04.82,IMU,5.86,-62.99,-1181.15,21.79,-39.40,-25.03,348.75,145.35,33.45,27.1
2026/04/15 14:30:04.92,IMU,73.73,-37.60,-1175.78,22.04,-24.47,-22.88,353.70,147.45,29.70,27.3
2026/04/15 14:30:05.02,IMU,99.61,-49.32,-1120.12,28.34,-32.32,-26.19,355.35,146.55,29.55,27.1
2026/04/15 14:30:05.12,IMU,64.94,-76.17,-1094.24,26.87,-41.43,-22.19,357.45,144.45,28.20,26.9
2026/04/15 14:30:05.22,IMU,14.65,-64.94,-1067.38,20.87,-26.53,-24.96,359.85,142.65,27.30,27.1
2026/04/15 14:30:05.32,IMU,39.55,-58.59,-1020.02,17.42,-6.23,-20.89,361.80,141.00,26.85,27.1
2026/04/15 14:30:05.42,IMU,100.10,-51.27,-953.61,17.17,-8.49,-20.64,361.80,138.30,24.60,27.2
2026/04/15 14:30:05.52,IMU,81.05,-63.48,-896.00,11.33,-14.60,-19.75,363.30,136.80,26.40,27.2
2026/04/15 14:30:05.62,IMU,-3.42,-72.27,-976.07,3.09,-10.18,-19.17,366.00,135.15,25.20,27.1
2026/04/15 14:30:05.72,IMU,8.79,-65.43,-916.50,-3.33,11.39,-21.02,366.00,133.65,24.90,26.8
2026/04/15 14:30:05.82,IMU,76.66,-74.71,-961.91,-8.77,19.48,-17.43,364.05,135.60,24.30,27.2
2026/04/15 14:30:05.92,IMU,90.33,-72.27,-958.98,-16.55,8.21,-18.58,362.70,134.70,24.45,27.0
2026/04/15 14:30:06.02,IMU,56.64,-64.45,-1023.93,-23.82,3.21,-17.89,361.65,135.90,24.90,27.1
2026/04/15 14:30:06.12,IMU,6.35,-79.59,-1066.89,-28.74,19.29,-20.30,362.70,137.70,27.00,27.2
2026/04/15 14:30:06.22,IMU,54.69,-85.45,-1072.27,-30.57,30.63,-19.11,360.90,140.10,26.25,27.3
2026/04/15 14:30:06.32,IMU,138.67,-79.10,-1139.16,-35.85,20.48,-18.74,360.15,140.40,29.10,27.2
2026/04/15 14:30:06.42,IMU,63.48,-35.64,-1166.02,-35.34,6.05,-21.36,359.85,139.65,29.10,27.2
2026/04/15 14:30:06.52,IMU,-2.44,-79.10,-1160.64,-36.98,18.45,-22.46,361.20,144.15,30.60,27.2
2026/04/15 14:30:06.62,IMU,74.71,-48.83,-1131.35,-37.30,26.77,-22.47,361.80,144.45,29.40,27.4
2026/04/15 14:30:06.72,IMU,142.09,-28.81,-1104.98,-34.56,12.84,-23.07,359.85,146.10,30.30,27.3
2026/04/15 14:30:06.82,IMU,62.50,-39.55,-1070.80,-27.11,-0.98,-22.63,359.40,148.35,29.85,27.2
2026/04/15 14:30:06.92,IMU,24.41,-28.81,-1061.52,-24.81,2.55,-21.99,361.80,149.70,30.75,26.8
2026/04/15 14:30:07.02,IMU,43.46,-21.00,-1009.77,-23.94,14.86,-21.69,360.90,153.00,31.35,27.2
2026/04/15 14:30:07.12,IMU,97.17,-19.04,-963.38,-13.23,8.43,-24.22,360.30,153.45,33.30,27.1
2026/04/15 14:30:07.22,IMU,96.68,-31.74,-937.01,-0.76,-10.76,-24.27,362.40,152.25,35.25,27.1
2026/04/15 14:30:07.32,IMU,33.20,-42.97,-958.50,4.36,-9.40,-26.94,364.80,152.70,34.05,26.8
2026/04/15 14:30:07.42,IMU,3.91,-24.41,-967.29,10.12,1.09,-24.02,365.55,150.15,34.35,26.9
2026/04/15 14:30:07.53,IMU,91.80,-13.67,-988.77,21.11,7.07,-23.88,365.85,149.40,33.00,26.9
2026/04/15 14:30:07.63,IMU,99.12,-32.23,-1025.39,29.12,-5.00,-24.92,366.30,146.70,31.50,27.2
2026/04/15 14:30:07.73,IMU,48.34,-44.92,-1050.78,33.73,-9.56,-24.58,368.70,144.60,31.35,27.2
2026/04/15 14:30:07.83,IMU,29.79,-27.34,-1117.19,32.26,4.85,-25.21,366.90,140.55,29.70,27.2
2026/04/15 14:30:07.93,IMU,67.87,-35.16,-1115.23,41.79,16.78,-23.05,367.50,136.65,28.80,27.0
2026/04/15 14:30:08.03,IMU,102.54,-50.29,-1129.39,46.05,6.61,-27.91,366.30,134.85,27.60,27.2
2026/04/15 14:30:08.13,IMU,67.87,-47.85,-1169.92,43.51,-2.63,-27.02,366.30,130.35,28.95,27.1
2026/04/15 14:30:08.23,IMU,10.74,-57.13,-1152.83,39.44,12.73,-26.48,364.35,128.10,30.75,27.3
2026/04/15 14:30:08.33,IMU,59.08,-60.55,-1106.45,39.22,24.60,-24.69,363.00,125.10,27.60,27.1
2026/04/15 14:30:08.43,IMU,125.49,-64.45,-1065.92,33.98,14.14,-26.83,362.70,122.55,25.20,27.3
2026/04/15 14:30:08.53,IMU,87.89,-69.34,-1036.13,29.14,4.66,-26.18,361.20,119.55,24.15,27.1
2026/04/15 14:30:08.63,IMU,28.32,-53.71,-1005.37,21.37,8.77,-24.62,359.85,115.35,24.45,26.8
2026/04/15 14:30:08.73,IMU,56.15,-66.41,-951.17,12.79,19.65,-25.23,358.50,112.95,22.80,27.0
2026/04/15 14:30:08.83,IMU,118.65,-47.36,-1021.48,8.24,9.80,-20.60,356.25,110.55,21.45,26.9
2026/04/15 14:30:08.93,IMU,101.07,-56.64,-882.81,1.85,-7.08,-22.28,355.05,108.90,22.35,27.3
2026/04/15 14:30:09.03,IMU,55.18,-92.29,-895.02,-3.82,-13.25,-22.24,355.50,110.25,21.75,27.1
2026/04/15 14:30:09.13,IMU,30.76,-66.89,-973.63,-11.88,-5.87,-20.79,356.55,111.15,22.35,27.2
2026/04/15 14:30:09.23,IMU,84.47,-44.43,-991.70,-17.67,-6.56,-21.42,354.30,110.85,23.10,26.9
2026/04/15 14:30:09.33,IMU,133.79,-62.99,-1008.30,-17.40,-21.74,-20.38,355.05,112.35,24.45,27.1
2026/04/15 14:30:09.43,IMU,72.75,-92.29,-1057.13,-21.07,-33.34,-21.75,356.85,113.40,23.40,26.9
2026/04/15 14:30:09.53,IMU,33.69,-65.92,-1124.02,-25.36,-27.98,-22.12,358.65,114.60,26.70,27.1
2026/04/15 14:30:09.63,IMU,94.73,-31.25,-1131.84,-21.60,-22.06,-19.55,358.65,117.30,26.25,26.9
2026/04/15 14:30:09.73,IMU,112.79,-56.15,-1151.37,-21.69,-32.34,-17.91,359.55,117.45,27.15,27.0
2026/04/15 14:30:09.83,IMU,64.94,-63.48,-1147.95,-23.34,-43.15,-16.50,362.55,116.70,27.60,26.9
2026/04/15 14:30:09.93,IMU,23.44,-56.15,-1142.09,-22.03,-32.42,-15.58,364.20,119.10,27.00,26.8
2026/04/15 14:30:10.03,IMU,49.80,-48.34,-1107.42,-17.50,-18.36,-10.55,365.70,119.85,26.70,27.0
2026/04/15 14:30:10.13,IMU,78.61,-46.39,-1071.78,-14.18,-24.36,-12.53,366.60,119.40,27.60,27.1
2026/04/15 14:30:10.23,IMU,73.24,-48.34,-1028.81,-10.18,-32.91,-12.65,369.30,121.05,28.50,26.9
2026/04/15 14:30:10.34,IMU,-1.95,-42.97,-1010.25,-7.98,-20.59,-12.34,370.65,121.65,30.45,26.8
2026/04/15 14:30:10.44,IMU,2.93,-42.48,-957.52,-4.31,-5.46,-10.84,371.25,121.50,31.35,26.8
2026/04/15 14:30:10.54,IMU,67.38,-36.13,-949.71,-0.09,1.59,-13.39,371.40,120.90,30.00,26.8
2026/04/15 14:30:10.64,IMU,61.52,-34.18,-966.31,2.79,-1.98,-13.90,372.00,121.05,29.55,26.8
2026/04/15 14:30:10.74,IMU,16.60,-33.20,-972.17,8.63,-1.04,-15.22,370.95,119.40,29.70,26.8
2026/04/15 14:30:10.84,IMU,0.49,-46.88,-997.56,8.68,19.76,-12.83,371.25,118.05,29.10,27.0
2026/04/15 14:30:10.94,IMU,37.11,-51.76,-1030.76,12.23,31.93,-13.48,367.95,117.60,27.75,26.8
2026/04/15 14:30:11.04,IMU,86.91,-51.27,-1053.22,11.96,30.85,-11.47,365.85,114.00,27.15,26.8
2026/04/15 14:30:11.14,IMU,59.57,-59.57,-1088.38,13.73,22.60,-13.56,363.45,113.40,28.05,27.1
2026/04/15 14:30:11.24,IMU,5.86,-63.96,-1121.09,12.14,34.08,-12.29,361.80,113.25,25.80,27.0
2026/04/15 14:30:11.34,IMU,36.13,-48.34,-1122.56,13.13,44.55,-11.98,359.25,112.05,25.05,27.0
2026/04/15 14:30:11.44,IMU,119.14,-60.06,-1127.93,12.73,39.61,-13.47,356.55,111.60,25.50,27.1
2026/04/15 14:30:11.54,IMU,87.40,-63.96,-1115.23,12.63,31.34,-14.87,353.40,111.00,26.85,27.0
2026/04/15 14:30:11.64,IMU,33.20,-66.41,-1104.98,7.44,32.76,-15.74,352.95,110.25,25.05,26.9
2026/04/15 14:30:11.74,IMU,69.34,-36.13,-1081.05,5.97,38.74,-14.24,350.10,108.30,25.05,26.9
2026/04/15 14:30:11.84,IMU,105.47,-52.25,-1020.02,6.54,31.97,-11.65,345.75,106.95,22.65,27.0
2026/04/15 14:30:11.94,IMU,101.56,-52.25,-1008.79,4.77,16.31,-14.52,344.55,107.55,22.80,27.0
2026/04/15 14:30:12.04,IMU,62.50,-53.71,-929.69,1.50,9.44,-9.65,341.10,107.40,20.10,27.0
2026/04/15 14:30:12.14,IMU,43.46,-46.39,-961.91,1.95,11.77,-12.21,343.05,105.30,21.45,27.1
2026/04/15 14:30:12.24,IMU,101.07,-52.73,-925.78,1.01,6.47,-12.87,339.60,106.20,22.65,27.1
2026/04/15 14:30:12.34,IMU,108.40,-42.48,-941.41,0.09,-8.54,-13.51,339.15,106.95,21.90,26.7
2026/04/15 14:30:12.44,IMU,75.68,-41.99,-975.59,-2.54,-24.04,-11.66,341.10,105.90,22.35,26.9
2026/04/15 14:30:12.54,IMU,48.34,-50.29,-1001.95,-1.60,-20.94,-11.13,341.55,108.00,23.25,26.9
2026/04/15 14:30:12.64,IMU,84.47,-57.13,-1040.53,-2.31,-22.24,-11.34,343.20,108.45,22.65,27.0
2026/04/15 14:30:12.74,IMU,116.21,-47.36,-1084.47,0.02,-31.05,-9.56,344.85,108.30,24.00,26.9
2026/04/15 14:30:12.84,IMU,92.29,-32.23,-1121.58,-0.81,-44.15,-7.69,346.50,106.95,24.90,27.0
2026/04/15 14:30:12.94,IMU,41.99,-77.64,-1115.23,0.73,-40.92,-6.79,350.10,109.50,25.80,27.1
2026/04/15 14:30:13.04,IMU,51.76,-64.94,-1146.48,1.79,-31.31,-2.53,349.80,109.35,26.70,27.0
2026/04/15 14:30:13.14,IMU,101.56,-38.57,-1127.93,4.05,-35.59,-3.67,351.30,108.15,24.15,26.8
2026/04/15 14:30:13.25,IMU,78.61,-57.13,-1102.54,1.99,-42.36,-3.87,353.85,108.45,25.20,27.0
2026/04/15 14:30:13.35,IMU,25.39,-65.92,-1094.24,4.91,-34.04,-3.92,356.25,107.55,26.85,27.0
2026/04/15 14:30:13.45,IMU,34.18,-53.71,-1044.92,1.98,-21.30,-3.31,356.85,107.40,26.25,27.0
2026/04/15 14:30:13.55,IMU,71.29,-49.32,-1018.07,4.24,-19.21,-3.60,360.15,108.45,27.00,26.9
2026/04/15 14:30:13.65,IMU,54.69,-56.15,-986.33,4.18,-21.19,-4.01,360.60,107.70,27.30,27.0
2026/04/15 14:30:13.75,IMU,13.18,-58.59,-952.15,3.28,-15.44,-2.71,361.95,106.95,27.75,27.1
2026/04/15 14:30:13.85,IMU,6.84,-37.60,-977.54,2.49,2.34,-0.50,363.00,107.25,28.65,26.8
2026/04/15 14:30:13.95,IMU,40.04,-55.18,-962.40,3.37,13.20,-0.12,359.55,105.60,31.20,27.1
2026/04/15 14:30:14.05,IMU,74.22,-48.34,-956.05,-0.11,12.63,-0.56,361.05,107.25,27.90,27.0
2026/04/15 14:30:14.15,IMU,31.74,-62.01,-996.09,-0.35,14.41,-4.79,360.90,105.90,27.30,26.8
2026/04/15 14:30:14.25,IMU,-5.86,-65.92,-1041.99,0.80,25.85,-0.03,357.90,106.20,27.30,27.0
2026/04/15 14:30:14.35,IMU,44.43,-52.73,-1062.50,-0.85,39.60,-1.46,355.95,105.60,26.10,27.0
2026/04/15 14:30:14.45,IMU,92.29,-71.29,-1070.31,-3.53,38.27,-3.84,353.85,106.20,26.70,26.8
2026/04/15 14:30:14.55,IMU,61.04,-54.69,-1115.72,-2.58,28.80,4.08,353.70,106.50,26.10,26.8
2026/04/15 14:30:14.65,IMU,33.20,-36.13,-1135.25,-3.22,35.01,-3.07,349.50,107.70,25.20,26.7
2026/04/15 14:30:14.75,IMU,49.32,-67.87,-1125.00,-3.56,46.96,-1.90,348.75,105.90,24.15,26.9
2026/04/15 14:30:14.85,IMU,107.91,-50.29,-1112.79,-4.31,39.24,-1.76,347.25,108.15,25.50,26.8
2026/04/15 14:30:14.96,IMU,98.63,-37.11,-1084.96,-1.74,29.60,-1.04,345.15,106.65,24.90,27.0
2026/04/15 14:30:15.06,IMU,48.83,-54.20,-1053.71,-2.21,27.33,-0.26,344.70,106.95,24.45,26.7
2026/04/15 14:30:15.16,IMU,64.94,-46.88,-1021.48,-6.31,33.99,2.14,343.20,108.45,23.40,26.8
2026/04/15 14:30:15.26,IMU,122.56,-44.43,-1000.98,-4.72,21.86,1.94,339.75,107.55,22.05,26.8
2026/04/15 14:30:15.36,IMU,110.35,-30.76,-971.68,-0.07,9.25,2.14,338.85,107.40,21.90,26.8
2026/04/15 14:30:15.46,IMU,59.57,-42.48,-952.64,-0.49,-3.03,2.98,337.35,106.95,20.85,26.9
2026/04/15 14:30:15.56,IMU,57.13,-54.20,-954.59,-3.76,-0.36,4.84,338.10,108.15,21.90,26.7
2026/04/15 14:30:15.66,IMU,98.14,-57.13,-941.89,-2.96,-3.36,4.86,338.25,107.55,22.50,27.0
2026/04/15 14:30:15.76,IMU,117.19,-52.25,-969.73,0.48,-18.78,5.61,339.60,109.35,21.60,27.1
2026/04/15 14:30:15.86,IMU,79.59,-58.59,-998.54,-0.59,-29.05,3.96,342.00,108.00,21.45,27.0
2026/04/15 14:30:15.96,IMU,40.04,-67.87,-1056.15,-1.05,-32.06,5.10,342.45,108.90,24.15,26.7
2026/04/15 14:30:16.06,IMU,72.27,-48.83,-1087.40,1.60,-26.73,7.40,345.60,107.55,23.55,26.9
2026/04/15 14:30:16.16,IMU,121.58,-62.50,-1099.12,2.73,-32.10,7.87,346.80,108.00,25.35,26.7
2026/04/15 14:30:16.26,IMU,90.33,-73.24,-1114.75,1.43,-43.52,6.39,348.90,109.05,26.40,26.8
2026/04/15 14:30:16.36,IMU,44.92,-61.04,-1137.21,1.85,-41.71,9.23,350.40,108.30,26.10,27.0
2026/04/15 14:30:16.46,IMU,46.39,-55.66,-1122.56,0.60,-29.37,11.36,353.70,108.30,26.10,27.0
2026/04/15 14:30:16.56,IMU,84.96,-65.43,-1087.89,-0.22,-32.31,9.41,355.35,109.65,25.50,26.8
2026/04/15 14:30:16.66,IMU,72.75,-52.25,-1066.89,-1.31,-35.62,9.29,357.90,109.65,26.70,26.8
2026/04/15 14:30:16.76,IMU,24.41,-52.73,-1048.83,2.44,-29.09,9.91,359.85,110.10,26.25,27.0
2026/04/15 14:30:16.86,IMU,26.86,-55.66,-1009.77,2.58,-13.60,6.37,361.80,109.80,26.40,26.8
2026/04/15 14:30:16.96,IMU,53.22,-57.13,-979.98,-2.97,-10.85,11.53,363.45,109.65,28.05,26.9
2026/04/15 14:30:17.06,IMU,58.11,-32.71,-962.40,-0.56,-10.08,7.76,364.20,110.85,28.05,26.8
2026/04/15 14:30:17.16,IMU,21.97,-36.13,-957.52,5.08,-6.55,9.86,367.20,110.40,29.85,26.8
2026/04/15 14:30:17.26,IMU,7.81,-54.20,-963.87,2.26,8.15,9.68,366.75,110.85,28.80,26.8
2026/04/15 14:30:17.36,IMU,45.41,-58.11,-970.21,1.19,21.71,11.11,366.45,110.40,28.05,26.8
2026/04/15 14:30:17.46,IMU,48.83,-33.20,-999.51,2.74,22.27,6.84,363.90,112.35,28.05,26.5
2026/04/15 14:30:17.56,IMU,63.48,-52.73,-1047.36,5.99,20.08,9.07,363.15,109.65,27.75,26.9
2026/04/15 14:30:17.66,IMU,23.93,-65.43,-1060.55,5.21,28.39,11.78,362.25,109.50,27.60,26.6
2026/04/15 14:30:17.76,IMU,41.50,-54.20,-1095.21,2.92,39.84,10.50,359.85,111.90,27.00,27.0
2026/04/15 14:30:17.86,IMU,101.07,-41.99,-1115.23,8.80,38.31,13.75,358.35,110.40,25.20,26.8
2026/04/15 14:30:17.96,IMU,69.34,-59.57,-1125.98,8.44,31.67,10.28,355.50,111.00,27.15,26.8
2026/04/15 14:30:18.07,IMU,30.76,-55.66,-1117.19,8.94,37.28,12.24,355.35,111.15,25.20,26.7
2026/04/15 14:30:18.17,IMU,61.04,-41.02,-1109.38,8.14,38.37,11.92,354.45,110.25,26.10,26.8
2026/04/15 14:30:18.27,IMU,105.47,-49.32,-1071.78,9.76,35.66,12.14,352.05,110.10,24.45,26.8
2026/04/15 14:30:18.37,IMU,95.21,-62.50,-1040.53,8.60,25.46,9.60,351.15,109.05,22.50,27.0
2026/04/15 14:30:18.47,IMU,61.52,-61.04,-1005.37,4.76,20.24,14.84,349.50,110.10,23.40,26.8
2026/04/15 14:30:18.57,IMU,68.36,-56.15,-960.45,4.05,20.18,12.32,349.50,108.90,22.35,26.9
2026/04/15 14:30:18.67,IMU,88.38,-69.82,-943.85,3.17,15.47,11.42,348.45,108.90,21.90,26.8
2026/04/15 14:30:18.77,IMU,109.37,-74.71,-906.74,-2.82,3.89,13.78,347.85,108.00,21.75,27.0
2026/04/15 14:30:18.87,IMU,78.12,-55.18,-958.50,-2.98,-6.04,13.06,348.00,108.90,21.60,26.9
2026/04/15 14:30:18.97,IMU,48.34,-48.34,-983.40,-6.48,-9.31,12.85,349.20,107.70,21.90,27.0
2026/04/15 14:30:19.07,IMU,72.27,-62.99,-965.33,-11.63,-10.21,15.35,351.00,110.40,23.10,26.5
2026/04/15 14:30:19.17,IMU,97.17,-57.62,-993.16,-14.56,-17.69,13.03,352.80,111.90,23.10,27.0
2026/04/15 14:30:19.27,IMU,83.01,-48.34,-1050.78,-15.76,-29.55,14.84,353.85,111.90,23.10,26.8
2026/04/15 14:30:19.37,IMU,58.59,-86.43,-978.03,-16.13,-28.73,18.15,356.70,115.20,24.30,26.5
2026/04/15 14:30:19.47,IMU,65.43,-76.66,-1090.82,-23.43,-23.53,15.86,359.10,114.90,27.00,26.8
2026/04/15 14:30:19.57,IMU,104.98,-36.13,-1125.00,-24.18,-29.50,17.01,360.30,116.70,26.10,26.7
2026/04/15 14:30:19.67,IMU,81.54,-51.76,-1118.65,-21.74,-33.78,17.86,362.40,118.05,25.95,26.9
2026/04/15 14:30:19.77,IMU,41.02,-52.73,-1103.03,-20.31,-30.64,17.69,363.60,120.15,27.60,26.7
2026/04/15 14:30:19.87,IMU,28.81,-56.64,-1092.77,-23.71,-20.92,18.98,366.00,123.00,27.00,27.1
2026/04/15 14:30:19.97,IMU,69.34,-41.99,-1067.38,-19.33,-17.50,22.21,368.25,125.55,28.05,26.7
2026/04/15 14:30:20.07,IMU,66.89,-50.29,-1024.90,-14.68,-20.79,21.84,370.80,127.50,28.05,26.8
2026/04/15 14:30:20.17,IMU,28.81,-36.62,-993.16,-16.11,-16.88,23.73,370.50,128.70,28.50,26.3
2026/04/15 14:30:20.27,IMU,21.00,-32.23,-1008.79,-10.77,-5.11,20.97,371.55,130.95,29.85,26.6
2026/04/15 14:30:20.37,IMU,42.97,-27.34,-985.35,-3.66,3.73,23.34,374.10,132.45,30.60,26.6
2026/04/15 14:30:20.47,IMU,57.13,-23.44,-972.17,0.80,3.61,20.02,372.90,133.35,30.00,26.7
2026/04/15 14:30:20.57,IMU,39.55,-36.13,-971.19,5.54,2.31,22.21,373.35,133.95,31.35,26.6
2026/04/15 14:30:20.67,IMU,29.30,-32.23,-1006.35,10.92,7.73,22.48,373.35,135.15,30.90,26.8
2026/04/15 14:30:20.77,IMU,49.80,-26.37,-1017.58,18.50,14.92,18.39,372.15,134.85,30.45,26.8
2026/04/15 14:30:20.88,IMU,81.05,-47.85,-1041.99,22.21,15.53,20.21,371.25,133.95,29.85,26.5
2026/04/15 14:30:20.98,IMU,71.78,-23.93,-1062.99,23.95,7.61,21.01,368.70,134.40,29.10,26.6
2026/04/15 14:30:21.08,IMU,47.36,-38.57,-1105.96,28.73,12.80,22.50,367.95,131.25,29.10,26.7
2026/04/15 14:30:21.18,IMU,41.02,-48.83,-1124.51,32.92,18.66,20.91,367.20,129.45,29.55,26.6
2026/04/15 14:30:21.28,IMU,88.38,-50.78,-1107.91,29.59,17.99,19.38,365.70,129.75,28.80,26.5
2026/04/15 14:30:21.38,IMU,79.59,-48.34,-1105.47,31.17,9.69,20.83,363.45,127.50,27.75,26.8
2026/04/15 14:30:21.48,IMU,51.76,-52.73,-1092.29,31.21,8.84,19.56,364.65,128.25,29.10,26.9
2026/04/15 14:30:21.58,IMU,53.71,-74.71,-1059.08,27.57,13.05,18.39,364.35,127.65,27.60,26.7
2026/04/15 14:30:21.68,IMU,72.27,-66.41,-1041.50,20.77,15.08,17.81,362.25,126.60,25.05,26.6
2026/04/15 14:30:21.78,IMU,93.26,-61.04,-975.59,17.03,3.47,19.41,363.15,124.05,25.50,26.7
2026/04/15 14:30:21.88,IMU,47.36,-63.96,-1012.21,14.15,3.21,20.60,363.00,123.15,24.60,26.7
2026/04/15 14:30:21.98,IMU,49.32,-81.05,-948.73,5.02,3.82,23.44,362.70,123.30,22.35,26.7
2026/04/15 14:30:22.08,IMU,61.04,-64.45,-943.85,0.60,7.69,23.66,358.50,120.45,28.20,26.5
2026/04/15 14:30:22.18,IMU,81.05,-70.31,-947.27,-6.68,2.05,24.33,362.55,124.65,24.00,26.6
2026/04/15 14:30:22.28,IMU,75.20,-79.59,-966.31,-13.12,-1.18,24.60,363.45,126.30,24.15,26.6
2026/04/15 14:30:22.38,IMU,36.62,-71.29,-994.63,-19.20,1.81,22.44,362.70,126.75,23.70,26.7
2026/04/15 14:30:22.48,IMU,53.22,-57.62,-1025.39,-25.85,9.89,23.05,361.65,130.20,25.20,26.7
2026/04/15 14:30:22.58,IMU,77.64,-62.01,-1056.64,-30.30,9.65,26.11,363.15,132.45,25.20,26.6
2026/04/15 14:30:22.68,IMU,63.96,-72.75,-1064.45,-31.09,2.95,26.16,361.95,136.65,27.75,26.8
2026/04/15 14:30:22.78,IMU,54.20,-59.08,-1137.21,-34.65,6.40,23.84,363.15,137.70,29.55,26.8
2026/04/15 14:30:22.88,IMU,55.66,-57.62,-1080.57,-33.99,12.42,24.17,361.20,139.20,29.55,26.8
2026/04/15 14:30:22.98,IMU,65.43,-62.01,-1112.79,-35.55,15.92,24.63,361.65,141.90,28.80,26.6
2026/04/15 14:30:23.08,IMU,83.50,-53.22,-1110.84,-33.88,10.79,22.24,356.55,143.10,33.90,26.8
2026/04/15 14:30:23.18,IMU,61.52,-48.34,-1080.08,-29.48,8.94,23.20,359.10,147.30,30.60,26.8
2026/04/15 14:30:23.28,IMU,61.52,-53.22,-1062.99,-24.36,11.82,21.59,358.50,150.15,30.45,26.8
2026/04/15 14:30:23.38,IMU,67.38,-45.90,-1011.23,-24.27,13.56,21.92,356.55,151.35,31.35,26.7
2026/04/15 14:30:23.48,IMU,99.12,-32.71,-996.58,-20.49,6.44,22.15,353.70,152.40,32.55,26.6
2026/04/15 14:30:23.58,IMU,58.11,-20.51,-990.72,-12.37,2.86,21.42,354.45,153.45,32.25,26.7
2026/04/15 14:30:23.68,IMU,47.85,-45.41,-975.10,-5.00,4.76,21.54,352.95,155.85,32.25,26.7
2026/04/15 14:30:23.78,IMU,77.15,-35.16,-961.91,-1.28,2.76,20.47,351.90,154.65,33.30,26.9
2026/04/15 14:30:23.88,IMU,85.94,-31.74,-969.73,4.41,-3.79,23.43,350.40,155.40,32.55,27.0
2026/04/15 14:30:23.99,IMU,80.57,-42.48,-993.16,11.83,-14.53,23.37,351.15,153.45,31.50,26.7
2026/04/15 14:30:24.09,IMU,51.27,-47.85,-1016.11,15.44,-17.62,23.67,347.10,152.40,36.90,26.8
2026/04/15 14:30:24.19,IMU,56.15,-38.09,-1043.46,15.36,-12.56,18.54,350.85,151.20,32.25,26.9
2026/04/15 14:30:24.29,IMU,98.14,-48.83,-1077.15,19.57,-18.39,20.82,351.45,152.40,31.20,26.7
2026/04/15 14:30:24.39,IMU,93.75,-40.53,-1075.68,21.92,-25.92,22.92,351.90,149.40,30.45,26.6
2026/04/15 14:30:24.50,IMU,62.99,-58.11,-1107.91,20.53,-29.03,22.54,353.25,149.10,31.65,26.8
2026/04/15 14:30:24.60,IMU,56.15,-42.97,-1104.00,19.18,-23.49,24.44,352.65,147.75,29.40,26.4
2026/04/15 14:30:24.70,IMU,84.47,-56.15,-1090.82,21.15,-22.37,24.20,353.40,147.00,30.00,26.8
2026/04/15 14:30:24.80,IMU,72.27,-53.22,-1068.36,15.64,-25.98,22.15,354.90,148.20,30.45,26.5
2026/04/15 14:30:24.90,IMU,32.71,-51.27,-1060.55,13.18,-24.79,23.44,354.15,146.25,30.00,27.0
2026/04/15 14:30:25.00,IMU,26.86,-54.20,-1018.07,11.03,-15.27,24.43,354.15,144.75,30.00,27.0
2026/04/15 14:30:25.10,IMU,46.39,-65.92,-997.07,7.98,-7.74,26.19,353.85,145.80,28.05,26.9
2026/04/15 14:30:25.20,IMU,47.36,-50.78,-978.52,3.40,-11.11,25.28,355.05,144.15,26.70,26.7
2026/04/15 14:30:25.30,IMU,29.30,-58.11,-962.40,2.99,-4.47,23.74,354.15,144.75,26.10,27.0
2026/04/15 14:30:25.40,IMU,14.65,-54.69,-966.31,-0.18,1.26,23.31,355.35,144.90,27.30,26.8
2026/04/15 14:30:25.50,IMU,25.88,-62.99,-971.68,-2.76,14.69,25.85,353.25,144.90,25.95,26.6
2026/04/15 14:30:25.60,IMU,68.85,-51.27,-982.91,-1.85,19.34,24.11,350.40,144.00,26.85,26.7
2026/04/15 14:30:25.70,IMU,31.25,-43.46,-1011.72,-5.03,16.23,24.28,349.65,145.50,26.40,26.6
2026/04/15 14:30:25.80,IMU,31.74,-53.22,-1047.36,-2.00,24.37,24.70,347.40,146.70,26.40,26.7
2026/04/15 14:30:25.90,IMU,31.74,-69.34,-1048.83,-4.95,32.89,27.70,346.20,145.35,27.75,26.7
2026/04/15 14:30:26.00,IMU,82.03,-64.45,-1067.87,-4.81,35.56,22.51,344.10,146.25,31.50,26.8
2026/04/15 14:30:26.10,IMU,70.31,-34.18,-1112.79,-0.30,32.11,24.58,342.45,144.15,29.85,26.8
2026/04/15 14:30:26.20,IMU,48.83,-66.89,-1102.54,-0.31,32.81,28.51,339.45,144.45,28.95,26.8
2026/04/15 14:30:26.30,IMU,45.41,-67.87,-1083.50,1.16,36.70,24.02,336.45,144.45,28.20,26.8
2026/04/15 14:30:26.40,IMU,92.77,-45.41,-1092.29,1.94,35.60,27.20,334.80,142.35,28.80,26.7
2026/04/15 14:30:26.50,IMU,91.31,-55.66,-1047.36,3.85,27.12,26.19,330.60,140.55,28.20,26.3
2026/04/15 14:30:26.60,IMU,66.89,-42.97,-1051.27,1.94,19.48,28.47,328.35,140.25,31.20,26.7
2026/04/15 14:30:26.70,IMU,62.99,-56.15,-1005.86,0.91,22.82,26.60,325.65,138.45,30.30,26.4
2026/04/15 14:30:26.80,IMU,79.10,-59.57,-976.07,1.75,20.15,25.64,324.30,138.00,29.70,26.6
2026/04/15 14:30:26.90,IMU,98.14,-59.08,-949.22,-2.40,8.46,28.58,322.95,136.20,31.35,26.7
2026/04/15 14:30:27.00,IMU,78.12,-46.88,-967.29,-3.11,-0.31,28.01,321.75,134.55,32.25,26.9
2026/04/15 14:30:27.10,IMU,59.08,-68.85,-955.57,-6.40,-1.88,29.39,321.15,133.20,29.85,26.7
2026/04/15 14:30:27.20,IMU,80.08,-62.99,-972.17,-7.38,-4.14,28.34,321.60,131.70,30.90,26.6
2026/04/15 14:30:27.30,IMU,85.94,-63.96,-989.26,-12.36,-10.77,27.34,322.50,131.10,31.20,26.7
2026/04/15 14:30:27.40,IMU,77.15,-65.43,-1004.88,-16.49,-17.64,31.08,322.80,131.10,30.45,26.4
2026/04/15 14:30:27.51,IMU,62.01,-62.99,-1042.48,-18.60,-21.65,30.01,323.70,132.45,29.10,26.7
2026/04/15 14:30:27.61,IMU,62.50,-74.22,-1060.55,-20.45,-19.16,29.89,324.90,132.45,28.05,26.5
2026/04/15 14:30:27.71,IMU,83.01,-62.01,-1077.15,-27.07,-19.72,30.44,325.65,132.45,27.75,26.8
2026/04/15 14:30:27.81,IMU,86.43,-46.39,-1098.14,-24.78,-22.60,28.16,326.70,132.45,27.75,26.8
2026/04/15 14:30:27.91,IMU,66.41,-40.53,-1106.93,-25.95,-22.18,32.50,329.10,133.05,28.20,26.6
2026/04/15 14:30:28.01,IMU,51.76,-54.20,-1088.87,-25.08,-15.37,30.63,328.95,132.00,27.75,26.4
2026/04/15 14:30:28.11,IMU,59.08,-56.64,-1085.45,-27.17,-13.22,34.56,329.25,132.00,27.75,26.8
2026/04/15 14:30:28.21,IMU,69.82,-21.00,-1053.22,-25.53,-13.44,34.29,329.40,133.05,27.60,26.2
2026/04/15 14:30:28.31,IMU,44.43,-41.50,-1035.16,-18.84,-12.29,32.66,329.25,130.50,25.20,26.4
2026/04/15 14:30:28.41,IMU,38.09,-57.13,-1009.77,-15.56,-5.45,32.05,331.50,131.70,25.50,26.7
2026/04/15 14:30:28.51,IMU,58.59,-30.27,-1000.00,-12.02,0.46,33.25,329.40,130.80,25.05,26.8
2026/04/15 14:30:28.61,IMU,48.83,-25.88,-976.07,-3.53,1.38,31.37,329.70,131.70,26.25,26.7
2026/04/15 14:30:28.71,IMU,61.52,-22.46,-985.84,1.76,-3.04,31.60,328.50,130.20,25.20,26.5
2026/04/15 14:30:28.81,IMU,39.06,-28.32,-991.70,5.44,-1.27,32.85,328.35,127.65,25.05,26.8
2026/04/15 14:30:28.91,IMU,48.83,-27.34,-1000.00,11.76,5.76,31.72,328.65,127.65,25.35,26.7
2026/04/15 14:30:29.01,IMU,63.48,-36.13,-1024.90,17.77,5.31,29.82,327.75,124.80,24.90,26.5
2026/04/15 14:30:29.11,IMU,68.85,-26.37,-1033.69,21.52,-2.28,28.56,328.20,122.25,26.25,26.4
2026/04/15 14:30:29.21,IMU,55.66,-16.60,-1070.31,24.64,-2.03,32.75,328.35,121.95,27.15,26.7
2026/04/15 14:30:29.31,IMU,47.36,-61.04,-1070.31,31.35,-0.73,31.51,329.70,118.35,27.00,26.6
2026/04/15 14:30:29.41,IMU,92.77,-30.76,-1093.75,31.22,-0.33,31.40,328.65,117.45,26.40,26.8
2026/04/15 14:30:29.51,IMU,74.22,-49.80,-1082.52,27.90,-5.31,29.27,330.30,115.35,25.20,26.6
2026/04/15 14:30:29.61,IMU,52.73,-45.90,-1082.52,29.49,-9.48,30.71,331.35,110.55,26.40,26.6
2026/04/15 14:30:29.71,IMU,52.25,-59.57,-1077.64,27.63,-3.68,31.18,332.55,108.15,26.25,26.7
2026/04/15 14:30:29.81,IMU,55.66,-67.38,-1034.18,22.36,-1.63,33.81,334.65,106.50,25.80,26.7
2026/04/15 14:30:29.91,IMU,77.15,-59.57,-1003.91,16.11,-8.31,32.39,334.05,103.95,25.20,26.6
2026/04/15 14:30:30.01,IMU,50.29,-50.29,-1001.46,14.08,-6.47,30.73,336.30,102.75,25.95,26.7
2026/04/15 14:30:30.11,IMU,32.71,-56.64,-990.72,10.31,-3.73,32.11,339.00,100.35,27.60,26.6
2026/04/15 14:30:30.21,IMU,40.53,-65.43,-973.63,1.95,2.81,30.91,336.60,98.25,28.05,26.7
2026/04/15 14:30:30.31,IMU,75.68,-62.01,-971.19,-3.45,6.35,30.82,339.45,99.15,26.40,26.8
2026/04/15 14:30:30.41,IMU,54.69,-69.34,-969.73,-4.64,4.75,35.18,341.70,98.70,26.70,26.3
2026/04/15 14:30:30.51,IMU,23.44,-71.78,-987.79,-10.02,8.24,32.68,343.05,99.90,27.15,26.7
2026/04/15 14:30:30.62,IMU,28.32,-75.20,-1008.79,-13.24,17.81,34.60,344.70,99.75,27.30,26.6
2026/04/15 14:30:30.72,IMU,51.76,-55.66,-1037.60,-15.24,21.37,34.94,343.65,100.95,25.95,26.8
2026/04/15 14:30:30.82,IMU,60.06,-62.99,-1047.85,-15.37,23.40,30.44,343.20,102.00,25.20,26.7
2026/04/15 14:30:30.92,IMU,45.90,-59.57,-1073.24,-17.54,22.35,35.65,344.70,103.20,25.50,26.8
2026/04/15 14:30:31.02,IMU,57.62,-58.11,-1093.26,-19.21,31.30,32.31,344.10,104.85,24.60,26.5
2026/04/15 14:30:31.12,IMU,70.31,-55.18,-1092.77,-15.23,32.55,34.07,344.55,106.50,26.40,26.7
2026/04/15 14:30:31.22,IMU,85.45,-48.34,-1086.91,-17.11,28.47,34.56,340.80,105.60,28.65,26.3
2026/04/15 14:30:31.32,IMU,57.13,-47.36,-1084.96,-14.15,24.48,35.60,343.95,107.40,25.20,26.8
2026/04/15 14:30:31.42,IMU,60.55,-52.73,-1069.82,-10.67,29.39,33.66,344.70,108.45,24.90,26.7
2026/04/15 14:30:31.52,IMU,78.12,-54.69,-1035.64,-9.06,28.92,32.85,345.60,107.25,24.60,26.5
2026/04/15 14:30:31.62,IMU,93.75,-45.90,-992.68,-6.77,18.57,31.93,343.20,108.45,23.40,26.8
2026/04/15 14:30:31.72,IMU,81.05,-48.34,-989.26,-5.45,11.61,33.85,342.90,108.15,23.40,26.6
2026/04/15 14:30:31.82,IMU,69.82,-48.83,-971.68,-3.94,8.79,34.81,342.90,107.70,20.85,26.5
2026/04/15 14:30:31.92,IMU,77.64,-57.62,-958.98,-4.40,7.15,33.25,344.85,108.75,21.75,26.5
2026/04/15 14:30:32.02,IMU,104.00,-44.92,-962.40,-5.91,0.03,35.70,345.75,109.35,21.90,26.7
2026/04/15 14:30:32.12,IMU,93.26,-48.34,-967.77,-6.46,-9.71,35.21,347.85,109.80,23.55,26.7
2026/04/15 14:30:32.22,IMU,68.36,-48.83,-994.14,-5.67,-17.89,36.69,348.45,111.90,23.40,26.8
2026/04/15 14:30:32.32,IMU,77.15,-48.34,-1016.11,-7.56,-18.51,38.80,352.05,110.85,23.70,26.6
2026/04/15 14:30:32.42,IMU,79.59,-62.50,-1044.92,-12.30,-19.47,35.65,355.20,113.25,24.60,26.6
2026/04/15 14:30:32.52,IMU,82.52,-39.55,-1079.59,-12.76,-24.76,34.91,357.45,112.95,25.35,26.6
2026/04/15 14:30:32.62,IMU,68.36,-40.53,-1070.31,-14.28,-29.10,35.30,358.95,115.50,25.35,26.5
2026/04/15 14:30:32.72,IMU,53.71,-62.01,-1100.59,-16.08,-23.85,33.25,360.00,116.70,26.85,26.7
2026/04/15 14:30:32.82,IMU,68.85,-53.22,-1083.01,-21.52,-21.69,38.18,360.90,118.35,26.70,26.4
2026/04/15 14:30:32.92,IMU,83.98,-44.43,-1087.89,-18.59,-23.66,38.34,363.30,120.15,26.85,26.6
2026/04/15 14:30:33.02,IMU,62.01,-55.66,-1073.73,-18.12,-23.85,38.10,366.75,124.50,28.05,26.3
2026/04/15 14:30:33.12,IMU,39.06,-48.83,-1056.15,-18.19,-16.73,36.20,367.65,126.60,28.65,26.4
2026/04/15 14:30:33.22,IMU,49.80,-49.32,-1022.46,-14.69,-9.36,35.92,370.80,127.95,28.80,26.6
2026/04/15 14:30:33.33,IMU,59.08,-32.23,-1005.37,-13.51,-8.89,37.18,371.25,129.00,29.55,26.7
2026/04/15 14:30:33.43,IMU,57.13,-35.16,-1000.98,-8.98,-9.08,36.58,372.15,132.60,29.40,26.5
2026/04/15 14:30:33.53,IMU,41.50,-23.44,-993.16,-3.27,-5.08,34.65,371.40,134.55,31.20,26.3
2026/04/15 14:30:33.63,IMU,43.46,-38.09,-979.98,0.37,4.78,37.50,372.00,135.90,30.90,26.7
2026/04/15 14:30:33.73,IMU,68.36,-23.44,-996.58,5.33,5.15,35.83,370.95,137.55,30.00,26.7
2026/04/15 14:30:33.83,IMU,51.27,-27.83,-1004.88,12.21,1.44,33.95,370.05,138.90,30.60,26.6
2026/04/15 14:30:33.93,IMU,44.43,-23.44,-1031.25,17.14,2.84,31.60,369.90,138.30,28.95,26.4
2026/04/15 14:30:34.03,IMU,49.32,-37.60,-1042.97,21.69,7.37,36.31,367.35,138.75,30.45,26.7
2026/04/15 14:30:34.13,IMU,71.78,-37.11,-1046.88,22.28,8.85,33.08,367.50,139.20,29.10,26.5
2026/04/15 14:30:34.23,IMU,77.15,-47.36,-1062.01,25.18,5.36,31.69,365.55,138.75,28.65,26.5
2026/04/15 14:30:34.33,IMU,67.87,-50.29,-1089.36,29.10,0.91,30.85,365.55,138.00,30.00,26.7
2026/04/15 14:30:34.43,IMU,51.76,-54.20,-1071.29,28.80,3.92,33.60,365.10,137.25,29.70,26.4
2026/04/15 14:30:34.53,IMU,49.80,-69.34,-1069.82,27.38,4.34,33.76,364.65,136.65,29.85,26.6
2026/04/15 14:30:34.63,IMU,76.66,-60.06,-1063.96,25.82,0.25,29.27,363.30,136.35,28.20,26.4
2026/04/15 14:30:34.73,IMU,69.34,-57.62,-1041.99,21.68,-2.25,33.95,363.30,135.60,28.20,26.6
2026/04/15 14:30:34.83,IMU,39.55,-70.80,-1018.55,20.41,-0.41,32.42,362.55,136.80,26.40,26.6
2026/04/15 14:30:34.93,IMU,62.50,-72.75,-999.02,14.40,2.27,35.53,361.80,136.35,26.40,26.4
2026/04/15 14:30:35.03,IMU,67.87,-64.94,-972.17,10.44,2.14,35.52,361.80,135.30,25.05,26.3
2026/04/15 14:30:35.13,IMU,63.48,-73.24,-954.10,4.04,-1.53,31.90,361.05,136.35,25.35,26.6
2026/04/15 14:30:35.23,IMU,30.76,-70.80,-960.45,-3.15,1.27,30.64,361.50,135.30,25.05,26.5
2026/04/15 14:30:35.33,IMU,46.39,-77.15,-986.33,-6.94,7.18,34.68,360.90,137.40,25.50,26.5
2026/04/15 14:30:35.43,IMU,58.11,-62.50,-967.77,-12.08,12.34,33.11,359.85,137.40,25.50,26.8
2026/04/15 14:30:35.53,IMU,55.18,-68.85,-1005.86,-16.05,10.00,33.13,357.90,138.90,26.25,26.6
2026/04/15 14:30:35.63,IMU,46.88,-64.94,-1030.27,-18.50,13.34,31.52,357.00,142.05,27.60,26.7
2026/04/15 14:30:35.73,IMU,42.97,-53.22,-1042.48,-19.92,20.01,33.32,357.00,142.95,28.65,26.5
2026/04/15 14:30:35.83,IMU,58.59,-70.80,-1067.38,-20.00,24.16,30.66,355.50,144.75,29.70,26.4
2026/04/15 14:30:35.93,IMU,82.03,-62.99,-1093.26,-23.23,24.55,32.40,352.65,145.95,29.70,26.6
2026/04/15 14:30:36.03,IMU,57.13,-39.55,-1099.61,-20.12,21.24,33.21,351.45,147.75,30.75,26.8
2026/04/15 14:30:36.13,IMU,45.90,-59.57,-1070.31,-17.57,26.04,31.60,350.40,147.45,30.45,26.4
2026/04/15 14:30:36.23,IMU,62.01,-51.76,-1071.29,-16.63,26.82,30.24,348.15,149.70,29.40,26.7
2026/04/15 14:30:36.34,IMU,87.89,-45.90,-1055.66,-16.47,25.05,28.85,344.85,148.50,28.95,26.5
2026/04/15 14:30:36.44,IMU,83.98,-39.06,-1035.64,-11.73,18.24,32.37,343.05,148.95,30.45,26.8
2026/04/15 14:30:36.54,IMU,79.59,-39.06,-1016.11,-10.92,16.24,30.60,339.75,149.40,29.70,26.6
2026/04/15 14:30:36.64,IMU,71.78,-42.97,-1004.39,-7.40,13.95,31.59,337.50,150.90,31.50,26.8
2026/04/15 14:30:36.74,IMU,92.77,-38.09,-976.07,-5.55,9.70,31.60,335.40,149.40,31.80,26.7
2026/04/15 14:30:36.84,IMU,78.12,-48.83,-959.96,-5.17,2.56,31.73,333.15,150.45,32.55,26.7
2026/04/15 14:30:36.94,IMU,82.52,-42.97,-968.75,-0.64,-5.50,30.87,331.65,148.95,31.80,26.5
2026/04/15 14:30:37.04,IMU,67.38,-49.80,-990.23,-3.57,-8.95,33.15,331.35,148.20,30.45,26.6
2026/04/15 14:30:37.14,IMU,65.43,-49.80,-997.07,-3.41,-12.23,31.47,331.65,146.70,30.75,26.6
2026/04/15 14:30:37.24,IMU,84.47,-45.90,-1006.35,-3.53,-15.72,28.27,332.40,146.70,31.20,26.8
2026/04/15 14:30:37.34,IMU,86.43,-64.94,-1038.09,-4.87,-21.92,31.40,332.70,144.00,31.20,26.6
2026/04/15 14:30:37.44,IMU,71.29,-40.04,-1062.99,-6.78,-25.31,30.54,332.70,144.00,28.95,26.9
2026/04/15 14:30:37.54,IMU,67.38,-55.18,-1066.41,-4.34,-26.52,32.97,334.20,143.70,29.70,26.3
2026/04/15 14:30:37.64,IMU,94.73,-61.04,-1073.73,-8.34,-28.60,29.89,334.65,142.95,28.65,26.7
2026/04/15 14:30:37.74,IMU,58.11,-32.23,-1077.64,-9.99,-28.72,30.49,333.90,143.25,29.40,26.7
2026/04/15 14:30:37.84,IMU,44.92,-49.32,-1068.85,-10.58,-27.04,32.15,336.30,141.90,29.85,26.7
2026/04/15 14:30:37.94,IMU,52.25,-40.53,-1061.04,-10.29,-21.62,34.73,337.05,143.10,30.90,26.6
2026/04/15 14:30:38.04,IMU,55.66,-57.13,-1041.99,-10.09,-19.24,29.74,335.40,140.55,28.65,26.6
2026/04/15 14:30:38.14,IMU,66.89,-47.36,-1028.32,-8.31,-19.03,30.30,336.00,139.50,28.65,26.4
2026/04/15 14:30:38.24,IMU,40.53,-34.18,-1012.21,-4.23,-14.30,28.98,336.30,140.40,26.70,26.4
2026/04/15 14:30:38.34,IMU,30.27,-52.73,-1000.49,-6.07,-5.55,30.61,333.90,139.80,26.85,26.3
2026/04/15 14:30:38.44,IMU,52.25,-61.04,-967.77,-0.99,-2.04,28.64,335.85,140.10,25.95,26.7
2026/04/15 14:30:38.54,IMU,51.76,-48.34,-986.33,0.18,2.42,28.44,334.80,138.45,26.25,26.4
2026/04/15 14:30:38.64,IMU,32.23,-40.04,-991.70,2.95,2.65,29.58,334.65,138.75,26.10,26.6
2026/04/15 14:30:38.74,IMU,23.44,-50.78,-1021.00,8.75,10.50,29.17,333.45,138.00,27.60,26.4
2026/04/15 14:30:38.84,IMU,41.99,-51.76,-1019.53,10.35,17.20,25.18,333.00,135.45,28.50,26.1
2026/04/15 14:30:38.94,IMU,72.75,-36.13,-1022.95,14.05,18.39,27.20,331.05,133.65,27.00,26.6
2026/04/15 14:30:39.04,IMU,62.01,-40.04,-1067.87,18.37,15.56,27.50,329.85,133.35,28.20,26.5
2026/04/15 14:30:39.14,IMU,42.48,-49.80,-1074.22,20.66,15.56,29.23,330.90,130.80,28.20,26.7
2026/04/15 14:30:39.24,IMU,52.73,-45.41,-1090.82,23.58,19.57,28.87,328.20,129.00,27.30,26.4
2026/04/15 14:30:39.34,IMU,80.08,-50.78,-1076.17,24.85,18.17,27.51,323.25,123.45,29.70,26.4
2026/04/15 14:30:39.44,IMU,73.24,-45.90,-1070.80,23.69,13.91,25.30,326.70,123.30,27.00,26.7
2026/04/15 14:30:39.55,IMU,58.59,-55.18,-1061.04,22.42,10.37,25.60,326.55,122.70,27.90,26.5
2026/04/15 14:30:39.65,IMU,58.59,-57.62,-1041.02,19.94,12.30,27.70,323.85,119.40,27.60,26.4
2026/04/15 14:30:39.75,IMU,68.36,-62.50,-1025.88,16.98,10.67,26.15,325.05,115.95,26.85,26.4
2026/04/15 14:30:39.85,IMU,89.36,-74.22,-996.09,12.76,4.92,29.12,323.40,114.15,27.30,26.4
2026/04/15 14:30:39.95,IMU,62.50,-59.08,-981.45,7.63,4.15,24.50,323.70,112.35,27.30,26.5
2026/04/15 14:30:40.05,IMU,55.66,-67.38,-979.49,4.02,4.04,26.69,324.15,110.40,26.25,26.7
2026/04/15 14:30:40.15,IMU,70.31,-79.10,-955.57,-2.46,6.57,24.50,324.45,109.35,27.00,26.4
2026/04/15 14:30:40.25,IMU,57.13,-58.59,-962.89,-7.33,2.31,25.96,324.45,109.35,27.30,26.4
2026/04/15 14:30:40.35,IMU,69.34,-62.50,-990.72,-13.24,0.06,27.35,327.30,106.50,30.00,26.6
2026/04/15 14:30:40.45,IMU,60.06,-62.01,-1006.84,-17.99,0.67,26.90,327.75,107.40,25.50,26.5
2026/04/15 14:30:40.55,IMU,50.78,-71.29,-1020.02,-20.90,4.17,27.36,327.60,109.05,26.40,26.5
2026/04/15 14:30:40.65,IMU,75.20,-65.92,-1023.44,-25.18,6.35,24.89,326.55,106.80,26.40,26.5
2026/04/15 14:30:40.75,IMU,58.11,-53.71,-1049.32,-26.54,6.18,24.88,329.25,109.65,25.95,26.5
2026/04/15 14:30:40.85,IMU,64.94,-58.59,-1075.68,-29.34,5.95,24.24,330.00,110.85,25.20,26.3
2026/04/15 14:30:40.95,IMU,46.88,-58.11,-1086.43,-28.50,10.43,22.30,330.60,109.80,26.85,26.5
2026/04/15 14:30:41.05,IMU,69.82,-47.85,-1072.75,-29.48,10.76,23.69,331.80,113.40,25.95,26.4
2026/04/15 14:30:41.15,IMU,82.52,-43.95,-1059.08,-27.92,10.19,20.87,331.65,113.70,26.10,26.6
2026/04/15 14:30:41.25,IMU,65.92,-49.32,-1058.59,-25.08,8.63,25.08,330.75,111.90,27.00,26.4
2026/04/15 14:30:41.35,IMU,49.32,-57.62,-1052.73,-21.89,10.37,25.11,331.80,113.40,25.95,26.2
2026/04/15 14:30:41.45,IMU,68.85,-35.64,-1031.74,-19.25,10.60,20.28,331.50,114.15,24.45,26.6
2026/04/15 14:30:41.55,IMU,81.54,-42.48,-1012.70,-14.37,6.53,21.27,331.05,114.15,24.45,26.4
2026/04/15 14:30:41.65,IMU,63.48,-41.02,-985.84,-7.47,0.71,23.98,332.25,114.60,24.15,26.7
2026/04/15 14:30:41.75,IMU,64.94,-37.11,-985.35,-4.28,-1.23,19.76,331.95,114.00,24.00,26.4
2026/04/15 14:30:41.85,IMU,62.01,-44.43,-979.49,1.05,2.00,23.07,333.45,113.70,24.00,26.4
2026/04/15 14:30:41.95,IMU,82.03,-36.62,-991.21,2.21,-5.16,21.26,333.15,113.25,24.60,26.4
2026/04/15 14:30:42.05,IMU,84.47,-31.74,-1012.70,10.23,-10.57,23.00,333.15,112.50,24.00,26.6
2026/04/15 14:30:42.15,IMU,68.85,-35.64,-1008.79,14.47,-12.53,22.63,335.55,111.15,23.70,26.4
2026/04/15 14:30:42.25,IMU,56.64,-46.39,-1041.99,15.94,-12.11,19.22,337.05,111.15,25.95,26.3
2026/04/15 14:30:42.35,IMU,82.52,-49.32,-1043.46,14.08,-13.81,22.87,337.35,110.10,24.45,26.6
2026/04/15 14:30:42.45,IMU,89.84,-47.36,-1057.13,16.68,-21.43,20.76,337.65,109.35,24.90,26.6
2026/04/15 14:30:42.55,IMU,68.85,-46.39,-1082.52,17.78,-23.22,20.09,340.05,108.00,24.60,26.5
2026/04/15 14:30:42.66,IMU,55.18,-52.73,-1061.52,17.76,-21.94,23.30,342.00,107.25,25.80,26.5
2026/04/15 14:30:42.76,IMU,56.15,-53.22,-1058.11,15.68,-18.15,21.01,343.80,105.60,25.80,26.4
2026/04/15 14:30:42.86,IMU,80.57,-50.29,-1041.50,14.79,-18.41,19.40,346.20,104.40,26.25,26.6
2026/04/15 14:30:42.96,IMU,59.08,-48.83,-1039.06,12.04,-18.10,20.46,347.40,104.55,25.05,26.5
2026/04/15 14:30:43.06,IMU,41.99,-56.64,-1020.51,10.47,-17.05,23.63,348.90,101.55,26.40,26.4
2026/04/15 14:30:43.16,IMU,38.09,-60.55,-1005.86,5.83,-7.86,18.85,349.80,103.95,26.25,26.3
2026/04/15 14:30:43.26,IMU,49.80,-45.90,-986.33,4.89,-5.97,19.08,351.45,101.85,26.40,26.4
2026/04/15 14:30:43.36,IMU,46.39,-49.80,-982.42,1.75,-2.53,22.50,352.50,100.50,26.70,26.2
2026/04/15 14:30:43.46,IMU,32.23,-65.92,-980.47,0.15,4.19,19.18,354.15,102.60,26.85,26.4
2026/04/15 14:30:43.56,IMU,31.25,-66.41,-991.70,-1.09,8.84,19.83,355.95,103.80,26.85,26.6
2026/04/15 14:30:43.66,IMU,45.41,-61.04,-994.63,-2.66,14.23,18.82,354.60,102.75,27.00,26.4
2026/04/15 14:30:43.76,IMU,56.64,-53.71,-1011.23,-5.27,17.05,19.35,356.70,103.80,26.40,26.5
2026/04/15 14:30:43.86,IMU,41.02,-52.73,-1029.79,-4.85,19.18,19.55,353.55,105.15,25.50,26.6
2026/04/15 14:30:43.96,IMU,46.39,-71.29,-1039.06,-4.92,26.43,19.01,353.40,106.05,26.10,26.3
2026/04/15 14:30:44.06,IMU,47.85,-62.99,-1060.55,-3.96,28.37,17.64,354.15,107.55,25.80,26.4
2026/04/15 14:30:44.16,IMU,71.29,-71.29,-1074.22,-4.66,29.05,15.41,353.25,108.15,25.20,26.5
2026/04/15 14:30:44.26,IMU,69.82,-49.32,-1079.59,-4.22,28.22,18.60,350.85,108.75,26.10,26.3
2026/04/15 14:30:44.36,IMU,60.55,-56.64,-1075.68,-3.77,28.92,21.62,350.40,108.75,26.10,26.5
2026/04/15 14:30:44.46,IMU,67.38,-52.25,-1044.92,-3.74,29.49,16.66,351.00,108.90,26.25,26.7
2026/04/15 14:30:44.56,IMU,79.10,-46.88,-1045.41,-2.31,23.69,18.14,351.00,108.90,24.90,26.6
2026/04/15 14:30:44.66,IMU,80.08,-62.50,-1013.18,-2.16,17.82,16.22,349.35,109.50,25.80,26.6
2026/04/15 14:30:44.76,IMU,56.64,-58.11,-1008.79,-0.60,14.03,17.48,350.25,110.40,24.15,26.8
2026/04/15 14:30:44.86,IMU,69.82,-58.59,-998.54,-2.88,12.73,16.40,348.75,108.90,23.40,26.5
2026/04/15 14:30:44.96,IMU,88.38,-51.76,-973.63,-2.34,10.05,16.68,348.00,110.10,23.10,26.7
2026/04/15 14:30:45.06,IMU,92.29,-55.66,-988.28,-0.92,1.14,15.82,348.75,110.85,21.90,26.5
2026/04/15 14:30:45.16,IMU,64.94,-46.88,-979.49,-3.96,-3.82,20.11,349.50,110.10,21.90,26.5
2026/04/15 14:30:45.26,IMU,56.15,-60.55,-998.54,-2.53,-8.82,13.48,350.40,111.75,24.30,26.5
2026/04/15 14:30:45.36,IMU,89.36,-57.62,-1008.30,-3.82,-15.92,17.84,352.50,111.15,24.15,26.4
2026/04/15 14:30:45.46,IMU,85.94,-47.85,-1000.00,-7.31,-16.77,19.51,353.25,111.60,24.15,26.7
2026/04/15 14:30:45.56,IMU,64.94,-65.92,-1022.46,-5.98,-21.86,16.16,354.90,114.00,24.00,26.4
2026/04/15 14:30:45.66,IMU,60.55,-49.80,-1053.22,-7.69,-22.90,18.75,356.25,113.25,25.35,26.4
2026/04/15 14:30:45.77,IMU,73.73,-34.67,-1064.45,-8.24,-21.90,15.86,357.60,114.90,27.30,26.4
2026/04/15 14:30:45.87,IMU,82.03,-63.96,-1061.52,-11.35,-25.48,15.50,358.50,115.50,26.85,26.5
2026/04/15 14:30:45.97,IMU,67.87,-52.25,-1073.24,-11.50,-27.39,15.82,360.15,114.90,27.75,26.6
2026/04/15 14:30:46.07,IMU,58.59,-48.34,-1071.78,-9.37,-22.59,16.23,363.30,117.45,26.85,26.5
2026/04/15 14:30:46.17,IMU,48.34,-53.22,-1047.36,-10.44,-19.48,17.52,363.90,118.05,26.25,26.3
2026/04/15 14:30:46.27,IMU,60.06,-54.69,-1039.55,-8.09,-17.45,16.62,366.45,120.30,27.00,26.4
2026/04/15 14:30:46.37,IMU,46.39,-48.83,-1027.83,-7.04,-14.98,15.85,366.90,121.20,28.20,26.4
2026/04/15 14:30:46.47,IMU,37.60,-43.95,-1014.65,-5.21,-11.77,19.16,370.65,121.20,28.95,26.4
2026/04/15 14:30:46.57,IMU,32.71,-42.48,-995.61,-2.06,-4.26,16.31,370.65,120.90,28.65,26.7
2026/04/15 14:30:46.67,IMU,38.57,-36.13,-996.58,0.02,-0.58,15.18,368.85,121.95,28.20,26.5
2026/04/15 14:30:46.77,IMU,42.48,-59.08,-982.91,2.91,-1.15,11.97,372.00,124.05,29.85,26.5
2026/04/15 14:30:46.87,IMU,40.04,-47.36,-995.61,5.43,4.53,15.38,370.50,125.25,28.80,26.5
2026/04/15 14:30:46.97,IMU,31.25,-46.88,-1014.16,8.01,11.98,14.72,371.40,124.20,30.00,26.4
2026/04/15 14:30:47.07,IMU,37.60,-35.64,-1034.67,9.41,16.15,12.29,369.00,124.80,28.80,26.3
2026/04/15 14:30:47.17,IMU,72.27,-47.36,-1033.69,12.37,16.22,12.68,368.70,123.30,27.30,26.6
2026/04/15 14:30:47.27,IMU,48.34,-47.36,-1048.34,15.14,16.21,13.45,366.75,124.05,27.00,26.3
2026/04/15 14:30:47.37,IMU,44.92,-49.80,-1056.64,17.03,20.68,10.57,365.70,123.00,27.75,26.4
2026/04/15 14:30:47.47,IMU,59.57,-69.34,-1062.99,16.83,23.52,13.58,363.90,121.05,29.55,26.5
2026/04/15 14:30:47.57,IMU,75.68,-50.78,-1059.57,13.45,21.68,10.45,363.60,121.65,27.15,26.3
2026/04/15 14:30:47.67,IMU,75.20,-58.11,-1071.78,16.73,17.33,9.57,363.15,121.80,28.50,26.4
2026/04/15 14:30:47.77,IMU,59.08,-57.62,-1035.16,16.53,15.21,9.01,364.35,119.70,28.95,26.6
2026/04/15 14:30:47.87,IMU,63.48,-60.06,-1028.81,12.92,19.98,9.97,362.55,120.15,26.85,26.4
2026/04/15 14:30:47.97,IMU,81.54,-69.34,-1008.79,12.27,15.32,5.53,361.95,121.80,24.90,26.4
2026/04/15 14:30:48.07,IMU,63.48,-65.92,-998.54,10.47,9.45,10.37,361.05,119.40,24.60,26.3
2026/04/15 14:30:48.17,IMU,65.92,-56.15,-979.98,4.98,6.51,9.96,358.35,119.85,25.20,26.5
2026/04/15 14:30:48.27,IMU,70.31,-58.11,-974.12,0.56,6.15,8.41,359.55,119.70,24.60,26.3
2026/04/15 14:30:48.37,IMU,76.66,-69.34,-968.75,-2.52,3.31,9.72,360.60,120.30,24.15,26.5
2026/04/15 14:30:48.47,IMU,84.47,-69.34,-979.98,-6.56,-1.98,5.89,356.70,117.75,28.20,26.5
2026/04/15 14:30:48.57,IMU,64.45,-58.59,-987.79,-9.35,-7.57,7.95,360.75,120.90,24.60,26.3
2026/04/15 14:30:48.67,IMU,64.45,-63.96,-1006.84,-14.20,-5.82,7.90,360.75,122.40,26.10,26.5
2026/04/15 14:30:48.77,IMU,62.01,-64.94,-1020.51,-16.67,-8.28,6.95,363.15,124.05,26.70,26.3
2026/04/15 14:30:48.88,IMU,74.22,-47.85,-1046.39,-20.29,-11.96,7.00,361.95,126.00,27.00,26.4
2026/04/15 14:30:48.98,IMU,60.06,-50.29,-1059.08,-22.00,-14.65,13.40,363.15,126.00,27.00,26.4
2026/04/15 14:30:49.08,IMU,39.06,-46.39,-1065.43,-22.22,-15.08,9.92,364.05,127.65,28.65,26.7
2026/04/15 14:30:49.18,IMU,57.13,-51.76,-1058.11,-21.04,-12.81,7.08,364.35,128.40,27.60,26.3
2026/04/15 14:30:49.28,IMU,63.48,-42.97,-1060.06,-21.24,-13.05,9.42,365.55,128.85,27.60,26.3
2026/04/15 14:30:49.38,IMU,69.34,-48.83,-1060.55,-20.68,-13.16,10.05,366.45,132.45,28.50,26.4
2026/04/15 14:30:49.49,IMU,44.92,-43.46,-1035.64,-16.54,-10.62,6.60,368.25,133.65,29.55,26.6
2026/04/15 14:30:49.59,IMU,44.92,-27.34,-1033.20,-14.94,-7.50,8.87,368.40,135.60,29.70,26.6
2026/04/15 14:30:49.69,IMU,58.59,-39.55,-1008.79,-14.32,-3.72,7.44,370.65,135.30,28.65,26.4
2026/04/15 14:30:49.79,IMU,72.75,-30.27,-1001.46,-8.84,-6.05,10.38,370.35,137.55,29.40,26.3
2026/04/15 14:30:49.89,IMU,43.95,-30.27,-995.12,-4.32,-2.47,7.45,370.80,138.15,31.65,26.5
2026/04/15 14:30:49.99,IMU,48.34,-40.53,-1001.95,2.00,0.39,3.44,369.30,138.90,30.30,26.4
2026/04/15 14:30:50.09,IMU,58.59,-46.88,-1000.98,5.03,3.21,4.85,370.05,138.45,30.90,26.4
2026/04/15 14:30:50.19,IMU,62.99,-45.41,-996.58,9.24,4.03,5.71,369.75,136.95,30.90,26.4
2026/04/15 14:30:50.29,IMU,52.25,-37.11,-1008.30,13.79,0.71,4.02,370.95,137.55,29.70,26.5
2026/04/15 14:30:50.39,IMU,56.64,-43.46,-1037.60,16.95,6.20,2.44,369.60,136.80,31.20,26.3
2026/04/15 14:30:50.49,IMU,51.76,-40.04,-1026.37,19.11,7.37,5.12,369.15,136.35,28.95,26.4
2026/04/15 14:30:50.59,IMU,64.94,-51.76,-1044.92,25.15,8.02,4.09,366.90,133.80,30.00,26.5
2026/04/15 14:30:50.69,IMU,64.45,-50.78,-1065.43,24.31,9.46,5.13,365.85,131.55,29.40,26.5
2026/04/15 14:30:50.79,IMU,64.94,-67.38,-1076.17,23.31,11.17,2.22,366.60,131.85,29.40,26.3
2026/04/15 14:30:50.89,IMU,63.96,-44.92,-1055.18,23.22,12.86,-0.24,366.30,129.60,27.60,26.4
2026/04/15 14:30:50.99,IMU,66.89,-58.59,-1052.25,22.21,11.82,2.11,364.80,129.60,28.95,26.4
2026/04/15 14:30:51.09,IMU,65.43,-62.01,-1044.92,18.31,9.27,0.91,366.30,128.85,28.65,26.4
2026/04/15 14:30:51.19,IMU,52.73,-61.04,-1029.79,17.55,6.51,1.39,363.60,128.85,27.15,26.5
2026/04/15 14:30:51.29,IMU,59.08,-66.89,-996.09,14.40,10.53,4.18,364.05,128.85,25.80,26.6
2026/04/15 14:30:51.39,IMU,58.59,-70.31,-1003.91,9.58,8.62,3.55,361.95,127.95,24.90,26.4
2026/04/15 14:30:51.49,IMU,77.15,-49.32,-972.17,5.44,2.33,2.11,362.25,126.15,24.60,26.4
2026/04/15 14:30:51.59,IMU,54.20,-65.92,-973.63,1.56,-0.37,-0.54,360.60,125.55,25.50,26.4
2026/04/15 14:30:51.69,IMU,66.41,-83.50,-967.29,-1.96,2.72,0.21,361.65,124.80,27.30,26.8
2026/04/15 14:30:51.79,IMU,78.61,-54.69,-979.98,-7.49,1.31,2.53,361.80,126.60,24.30,26.4
2026/04/15 14:30:51.89,IMU,71.78,-62.01,-994.14,-12.62,-3.02,-1.58,362.40,127.50,24.45,26.7
2026/04/15 14:30:51.99,IMU,67.38,-63.96,-1001.46,-17.63,-4.46,0.41,363.45,127.05,25.50,26.5
2026/04/15 14:30:52.09,IMU,62.99,-57.62,-1033.69,-17.95,-5.03,-1.10,362.25,128.85,26.40,26.4
2026/04/15 14:30:52.19,IMU,65.43,-49.32,-1041.99,-22.84,-5.68,-0.64,364.05,130.80,28.20,26.7
2026/04/15 14:30:52.30,IMU,83.50,-63.96,-1041.50,-24.45,-7.85,-1.96,363.90,131.70,28.80,26.3
2026/04/15 14:30:52.40,IMU,73.73,-58.59,-1064.45,-21.85,-12.33,-1.33,364.35,131.10,29.70,26.4
2026/04/15 14:30:52.50,IMU,64.45,-50.29,-1055.18,-22.44,-9.92,-0.47,363.90,133.20,28.50,26.4
2026/04/15 14:30:52.60,IMU,54.20,-49.32,-1063.48,-22.44,-8.30,1.51,366.45,134.40,28.80,26.6
2026/04/15 14:30:52.70,IMU,66.41,-44.43,-1039.55,-22.76,-6.34,0.67,366.45,135.45,29.10,26.2
2026/04/15 14:30:52.80,IMU,82.03,-50.29,-1035.16,-16.01,-7.77,0.13,367.65,135.30,28.95,26.4
2026/04/15 14:30:52.90,IMU,60.06,-43.95,-1022.95,-14.09,-7.72,-2.75,367.50,138.15,29.55,26.3
2026/04/15 14:30:53.00,IMU,62.50,-27.34,-1017.09,-12.07,-5.03,-1.36,368.10,139.05,29.70,26.3
2026/04/15 14:30:53.10,IMU,50.29,-27.34,-1003.42,-5.69,-0.84,-2.62,369.60,139.05,29.40,26.4
2026/04/15 14:30:53.20,IMU,74.71,-39.55,-996.09,-0.21,-2.25,-2.24,368.85,140.55,30.00,26.3
2026/04/15 14:30:53.30,IMU,60.06,-40.04,-990.23,3.39,-2.56,-1.17,370.50,138.15,30.60,26.4
2026/04/15 14:30:53.40,IMU,39.55,-30.27,-998.54,8.15,-0.76,-2.44,370.50,139.65,29.85,26.2
2026/04/15 14:30:53.50,IMU,58.59,-36.62,-1016.11,12.23,3.66,-3.35,369.30,138.45,31.35,26.4
2026/04/15 14:30:53.60,IMU,66.41,-42.48,-1010.74,18.14,4.51,-6.79,370.95,138.00,30.45,26.2
2026/04/15 14:30:53.70,IMU,62.99,-38.57,-1034.18,18.93,6.58,-5.16,370.05,136.65,30.60,26.4
2026/04/15 14:30:53.80,IMU,46.88,-37.11,-1046.39,21.21,3.37,-5.08,367.65,134.55,28.95,26.4
2026/04/15 14:30:53.90,IMU,55.18,-38.57,-1057.13,23.62,8.54,-4.88,367.50,133.65,28.80,26.6
2026/04/15 14:30:54.00,IMU,59.57,-58.11,-1069.82,24.93,11.08,-5.75,366.75,130.20,28.50,26.4
2026/04/15 14:30:54.10,IMU,47.36,-62.50,-1055.66,22.74,10.75,-5.92,365.85,129.90,29.70,26.3
2026/04/15 14:30:54.20,IMU,59.08,-51.76,-1059.08,22.98,10.04,-9.08,366.30,128.10,28.65,26.4
2026/04/15 14:30:54.30,IMU,61.52,-64.94,-1041.50,21.69,14.46,-9.00,364.80,127.65,28.95,26.3
2026/04/15 14:30:54.40,IMU,62.99,-72.27,-1032.71,18.41,11.85,-8.62,364.65,124.80,25.95,26.6
2026/04/15 14:30:54.50,IMU,67.38,-55.66,-1014.65,16.69,9.37,-7.88,363.00,125.40,26.40,26.4
2026/04/15 14:30:54.60,IMU,68.85,-62.50,-1007.81,12.15,7.55,-6.79,361.80,125.10,26.10,26.5
2026/04/15 14:30:54.70,IMU,52.25,-71.78,-998.05,8.86,7.10,-5.56,361.65,123.30,24.90,26.3
2026/04/15 14:30:54.80,IMU,67.38,-72.75,-990.23,3.08,5.88,-10.79,360.75,122.70,25.35,26.4
2026/04/15 14:30:54.90,IMU,57.62,-71.78,-986.33,-0.89,1.34,-7.44,361.95,122.55,25.50,26.6
2026/04/15 14:30:55.00,IMU,66.89,-60.06,-978.03,-3.08,-2.30,-8.53,361.65,122.55,24.90,26.5
2026/04/15 14:30:55.10,IMU,57.62,-62.50,-996.58,-9.56,-4.94,-8.43,360.75,123.15,24.30,26.4
2026/04/15 14:30:55.20,IMU,65.92,-52.73,-995.12,-13.47,-5.70,-9.32,362.25,124.20,26.40,26.3
2026/04/15 14:30:55.30,IMU,81.54,-58.59,-1007.81,-15.02,-8.96,-7.95,361.80,123.15,25.35,26.5
2026/04/15 14:30:55.40,IMU,77.15,-63.48,-1041.50,-14.53,-12.68,-8.58,363.45,124.80,27.75,26.5
2026/04/15 14:30:55.51,IMU,68.85,-61.04,-1029.30,-18.47,-12.24,-6.32,363.60,125.10,27.60,26.4
2026/04/15 14:30:55.61,IMU,56.64,-61.52,-1071.29,-19.56,-13.47,-7.58,364.05,126.15,28.20,26.5
2026/04/15 14:30:55.71,IMU,83.01,-63.48,-1072.75,-16.76,-12.98,-5.34,366.00,127.05,27.30,26.4
2026/04/15 14:30:55.81,IMU,55.66,-58.59,-1065.43,-18.63,-14.89,-9.60,365.10,127.65,27.60,26.4
2026/04/15 14:30:55.91,IMU,63.96,-50.29,-1070.80,-17.79,-16.59,-8.85,366.45,128.70,26.70,26.2
2026/04/15 14:30:56.01,IMU,61.04,-31.25,-1050.78,-14.37,-11.29,-10.89,367.65,127.65,28.95,26.5
2026/04/15 14:30:56.11,IMU,47.85,-45.90,-1017.58,-12.21,-10.59,-7.08,367.65,130.35,28.95,26.4
2026/04/15 14:30:56.21,IMU,64.94,-46.39,-1019.53,-9.12,-9.37,-7.61,369.90,129.60,29.40,26.7
2026/04/15 14:30:56.31,IMU,51.27,-41.99,-1017.58,-6.57,-9.35,-5.03,369.30,129.75,29.85,26.5
2026/04/15 14:30:56.41,IMU,41.02,-45.90,-996.09,-1.98,-6.24,-8.62,371.55,128.70,27.30,26.3
2026/04/15 14:30:56.51,IMU,43.95,-43.95,-1002.93,2.55,0.21,-9.08,370.05,129.45,29.10,26.4
2026/04/15 14:30:56.61,IMU,50.78,-41.50,-982.91,3.86,1.44,-11.42,370.80,128.70,30.60,26.4
2026/04/15 14:30:56.71,IMU,59.57,-51.76,-1008.79,9.71,2.52,-10.34,370.50,128.70,28.80,26.3
2026/04/15 14:30:56.81,IMU,38.57,-42.97,-1013.67,12.33,7.06,-15.56,371.40,127.65,27.60,26.1
2026/04/15 14:30:56.91,IMU,50.78,-41.50,-1036.62,10.11,12.02,-10.01,368.85,125.25,27.30,26.5
2026/04/15 14:30:57.01,IMU,58.11,-40.04,-1029.79,14.34,11.63,-10.81,368.40,124.65,27.90,26.4
2026/04/15 14:30:57.11,IMU,59.08,-42.48,-1035.16,17.27,14.95,-11.21,367.20,123.00,27.75,26.3
2026/04/15 14:30:57.21,IMU,55.18,-57.13,-1036.62,19.20,15.48,-12.11,364.95,122.25,27.00,26.3
2026/04/15 14:30:57.31,IMU,47.36,-71.78,-1065.92,16.72,18.54,-10.29,364.35,121.20,27.90,26.4
2026/04/15 14:30:57.41,IMU,52.25,-57.62,-1046.39,15.31,20.84,-12.27,363.30,118.65,27.15,26.4
2026/04/15 14:30:57.51,IMU,68.36,-68.36,-1046.39,14.83,20.47,-13.37,362.40,118.80,27.00,26.3
2026/04/15 14:30:57.61,IMU,68.36,-62.50,-1029.79,13.38,16.56,-14.35,361.50,118.20,26.85,26.5
2026/04/15 14:30:57.71,IMU,74.71,-47.85,-1030.27,10.50,16.63,-13.50,358.95,115.50,25.05,26.5
2026/04/15 14:30:57.81,IMU,71.78,-55.66,-1002.93,6.64,13.98,-15.82,358.95,117.45,26.40,26.7
2026/04/15 14:30:57.91,IMU,81.05,-52.73,-984.38,6.63,11.25,-14.55,357.60,114.90,25.20,26.5
2026/04/15 14:30:58.01,IMU,73.24,-52.73,-991.70,1.95,4.36,-12.89,356.85,116.10,24.90,26.5
2026/04/15 14:30:58.11,IMU,82.52,-61.04,-974.61,0.29,0.94,-14.37,355.20,115.20,23.25,26.4
2026/04/15 14:30:58.21,IMU,74.71,-58.11,-988.28,-0.20,0.40,-13.03,356.25,115.20,22.50,26.5
2026/04/15 14:30:58.31,IMU,88.87,-71.78,-987.79,-2.86,-5.08,-12.16,356.10,113.40,24.15,26.4
2026/04/15 14:30:58.41,IMU,80.57,-74.71,-988.28,-5.60,-10.30,-16.43,355.50,114.45,24.60,26.3
2026/04/15 14:30:58.51,IMU,65.43,-51.76,-1014.65,-5.82,-16.38,-12.31,355.80,114.60,24.45,26.4
2026/04/15 14:30:58.62,IMU,69.34,-71.29,-1047.36,-5.94,-16.41,-14.13,353.25,111.60,30.30,26.7
2026/04/15 14:30:58.72,IMU,55.18,-60.06,-1048.83,-6.63,-17.40,-11.94,357.00,115.20,26.85,26.4
2026/04/15 14:30:58.82,IMU,74.71,-68.85,-1019.04,-6.62,-23.41,-12.65,357.45,113.70,26.85,26.6
2026/04/15 14:30:58.92,IMU,68.85,-49.80,-1062.01,-4.29,-24.72,-15.09,357.45,113.25,27.60,26.6
2026/04/15 14:30:59.02,IMU,62.01,-51.76,-1058.11,-2.96,-23.35,-11.97,359.10,113.10,25.95,26.2
2026/04/15 14:30:59.12,IMU,60.55,-50.29,-1054.20,-5.36,-23.53,-17.18,359.10,113.85,25.50,26.4
2026/04/15 14:30:59.22,IMU,67.87,-62.50,-1052.73,-1.03,-20.92,-12.53,360.15,112.65,26.25,26.1
2026/04/15 14:30:59.32,IMU,57.13,-40.53,-1035.64,-0.44,-19.34,-15.73,363.30,113.70,25.05,26.5
2026/04/15 14:30:59.42,IMU,46.88,-67.38,-1024.41,0.15,-17.22,-14.24,363.90,112.35,26.70,26.5
2026/04/15 14:30:59.52,IMU,47.36,-66.41,-1011.72,-1.47,-10.57,-11.98,363.30,112.95,27.60,26.6
2026/04/15 14:30:59.62,IMU,41.02,-50.78,-997.56,1.69,-7.28,-13.73,363.60,111.30,28.20,26.4
2026/04/15 14:30:59.72,IMU,43.95,-47.36,-992.19,4.06,-4.33,-13.14,363.60,111.75,26.85,26.7
2026/04/15 14:30:59.82,IMU,37.60,-62.50,-995.12,2.06,-0.23,-15.04,363.60,110.55,26.85,26.5
2026/04/15 14:30:59.92,IMU,32.23,-61.04,-1013.67,4.31,4.68,-13.79,361.80,110.25,27.60,26.3
2026/04/15 14:31:00.02,IMU,51.27,-46.39,-1003.91,4.62,10.11,-15.92,360.90,110.85,27.30,26.4
2026/04/15 14:31:00.12,IMU,55.66,-48.83,-1001.95,2.87,13.35,-17.46,360.00,109.80,26.85,26.2
2026/04/15 14:31:00.22,IMU,55.18,-56.15,-1019.53,-1.29,15.52,-17.76,358.35,108.15,26.25,26.3
2026/04/15 14:31:00.32,IMU,62.99,-56.15,-1034.67,-1.01,18.31,-15.18,356.70,109.05,25.80,26.3
2026/04/15 14:31:00.42,IMU,47.85,-62.50,-1056.64,0.81,22.31,-13.40,355.50,106.80,26.85,26.4
2026/04/15 14:31:00.52,IMU,66.89,-60.55,-1051.76,-4.27,23.79,-20.29,352.65,107.25,25.35,26.3
2026/04/15 14:31:00.62,IMU,71.78,-41.50,-1037.11,-4.40,24.13,-18.54,350.40,108.30,24.60,26.3
2026/04/15 14:31:00.72,IMU,73.24,-52.25,-1047.36,-3.08,21.76,-20.24,351.30,108.90,23.70,26.3
2026/04/15 14:31:00.83,IMU,74.22,-56.15,-1040.53,-3.64,21.60,-18.45,348.45,108.45,25.50,26.4
2026/04/15 14:31:00.93,IMU,71.29,-50.29,-1037.11,-5.63,19.07,-17.55,347.25,108.45,25.95,26.5
2026/04/15 14:31:01.03,IMU,74.71,-32.71,-1021.97,-4.50,13.89,-19.60,346.50,108.15,24.90,26.1
2026/04/15 14:31:01.13,IMU,70.80,-58.59,-1003.91,-3.60,10.69,-19.69,344.85,109.05,25.35,26.5
2026/04/15 14:31:01.23,IMU,84.96,-54.69,-992.68,-3.43,7.10,-17.21,345.45,108.90,24.45,26.3
2026/04/15 14:31:01.33,IMU,91.80,-35.16,-1004.88,-4.16,6.29,-14.54,344.40,108.45,23.70,26.5
2026/04/15 14:31:01.43,IMU,81.05,-38.57,-1003.42,-0.09,-1.81,-18.27,342.45,109.65,23.40,26.4
2026/04/15 14:31:01.53,IMU,81.05,-54.20,-1002.44,3.24,-4.69,-16.35,341.70,108.90,23.70,26.5
2026/04/15 14:31:01.63,IMU,68.36,-43.95,-1004.88,4.91,-7.48,-15.99,342.75,107.55,25.35,26.4
2026/04/15 14:31:01.73,IMU,69.34,-33.20,-1004.88,4.36,-10.98,-17.16,341.55,110.25,24.30,26.3
2026/04/15 14:31:01.83,IMU,76.66,-40.53,-1018.55,8.91,-14.73,-18.08,341.25,108.75,25.05,26.4
2026/04/15 14:31:01.93,IMU,75.20,-62.50,-1021.97,12.76,-17.56,-16.93,341.25,109.80,25.35,26.4
2026/04/15 14:31:02.03,IMU,71.78,-54.69,-1061.04,12.73,-19.73,-20.15,341.10,107.70,25.95,26.4
2026/04/15 14:31:02.13,IMU,65.43,-41.02,-1053.22,15.64,-18.04,-18.99,341.25,107.25,25.80,26.3
2026/04/15 14:31:02.23,IMU,51.27,-47.85,-1062.99,19.50,-17.35,-17.72,341.10,106.95,24.45,26.4
2026/04/15 14:31:02.33,IMU,68.85,-56.64,-1038.57,17.40,-18.47,-18.47,341.40,105.90,24.90,26.4
2026/04/15 14:31:02.43,IMU,48.34,-52.25,-1055.66,17.03,-16.60,-18.53,342.15,105.45,24.15,26.4
2026/04/15 14:31:02.53,IMU,46.39,-49.32,-1037.60,17.09,-12.19,-19.89,343.80,103.35,24.60,26.5
2026/04/15 14:31:02.63,IMU,60.55,-71.29,-1018.55,16.57,-10.98,-18.71,341.55,104.55,25.05,26.3
2026/04/15 14:31:02.73,IMU,62.50,-57.62,-1009.77,12.92,-8.76,-17.91,342.30,101.10,25.80,26.6
2026/04/15 14:31:02.83,IMU,60.06,-48.34,-1005.37,11.51,-6.84,-18.28,340.50,102.30,26.10,26.2
2026/04/15 14:31:02.93,IMU,42.97,-55.18,-989.75,9.53,-3.24,-19.11,340.65,101.70,25.50,26.3
2026/04/15 14:31:03.03,IMU,55.18,-66.41,-981.45,4.53,-0.12,-20.86,339.75,101.10,26.40,26.5
2026/04/15 14:31:03.13,IMU,61.52,-58.59,-995.12,0.04,0.81,-20.05,339.15,101.25,26.70,26.4
2026/04/15 14:31:03.23,IMU,53.22,-57.13,-992.19,-1.58,2.59,-19.60,337.05,101.25,25.20,26.6
2026/04/15 14:31:03.33,IMU,55.18,-65.43,-1000.49,-7.68,7.02,-19.06,337.20,103.80,26.40,26.3
2026/04/15 14:31:03.43,IMU,45.41,-68.36,-1016.60,-11.94,8.98,-23.38,335.85,103.20,25.20,26.5
2026/04/15 14:31:03.53,IMU,71.29,-60.06,-1031.25,-15.63,8.12,-18.93,333.45,104.85,26.85,26.4
2026/04/15 14:31:03.63,IMU,62.99,-58.59,-1024.90,-12.29,7.96,-18.59,332.70,105.30,25.35,26.6
2026/04/15 14:31:03.73,IMU,60.55,-66.41,-1045.41,-17.16,7.79,-19.58,334.05,106.65,24.90,26.5
2026/04/15 14:31:03.83,IMU,55.66,-54.20,-1050.78,-19.15,8.88,-22.05,331.65,109.05,24.60,26.3
2026/04/15 14:31:03.93,IMU,66.41,-46.39,-1050.29,-19.48,6.60,-19.72,331.65,111.00,24.60,26.3
2026/04/15 14:31:04.04,IMU,65.92,-53.71,-1053.22,-18.86,5.47,-20.98,331.05,112.35,24.45,26.3
2026/04/15 14:31:04.14,IMU,48.83,-56.64,-1042.97,-17.08,1.89,-21.06,330.60,114.00,26.10,26.4
2026/04/15 14:31:04.24,IMU,48.83,-35.64,-1046.88,-16.89,3.47,-21.38,329.25,117.30,28.50,26.4
2026/04/15 14:31:04.34,IMU,62.50,-43.46,-1031.74,-12.79,0.24,-22.46,330.90,117.00,26.85,26.5
2026/04/15 14:31:04.44,IMU,63.96,-41.99,-1012.21,-9.57,-0.53,-23.05,330.15,116.70,27.30,26.4
2026/04/15 14:31:04.54,IMU,69.82,-41.99,-989.26,-7.60,-2.66,-23.31,329.70,118.05,25.20,26.3
2026/04/15 14:31:04.64,IMU,53.71,-25.39,-1021.48,-3.00,-4.80,-21.75,329.10,119.40,26.40,26.3
2026/04/15 14:31:04.74,IMU,57.62,-36.13,-1005.86,3.53,-3.78,-22.85,329.85,121.65,25.80,26.3
2026/04/15 14:31:04.84,IMU,66.41,-33.20,-994.14,8.34,-2.61,-24.03,328.65,121.20,26.40,26.3
2026/04/15 14:31:04.94,IMU,54.69,-30.27,-1004.39,12.13,-3.08,-22.96,328.35,121.20,25.35,26.1
2026/04/15 14:31:05.04,IMU,62.99,-38.57,-1021.97,15.05,0.36,-24.44,329.10,121.65,25.35,26.3
2026/04/15 14:31:05.14,IMU,49.80,-60.55,-1020.51,19.50,0.76,-24.95,329.25,122.25,27.30,26.4
2026/04/15 14:31:05.24,IMU,63.96,-39.55,-1045.41,21.21,3.94,-23.31,327.90,121.65,26.10,26.4
2026/04/15 14:31:05.34,IMU,64.45,-35.64,-1042.48,23.02,3.76,-26.09,328.50,123.00,27.00,26.5
2026/04/15 14:31:05.44,IMU,52.73,-62.50,-1066.89,26.67,6.31,-24.66,328.65,121.20,25.80,26.3
2026/04/15 14:31:05.54,IMU,57.13,-63.48,-1053.71,22.51,7.50,-26.08,328.20,121.05,27.00,26.3
2026/04/15 14:31:05.64,IMU,55.66,-50.29,-1059.08,20.41,8.92,-26.34,327.45,120.60,27.30,26.1
2026/04/15 14:31:05.74,IMU,72.75,-56.15,-1043.46,20.95,10.17,-24.68,325.80,120.45,26.85,26.6
2026/04/15 14:31:05.84,IMU,70.31,-59.08,-1034.67,20.34,7.92,-27.60,326.70,119.85,27.30,26.3
2026/04/15 14:31:05.94,IMU,61.04,-66.41,-994.63,13.31,8.58,-27.93,324.15,121.05,27.75,26.4
2026/04/15 14:31:06.04,IMU,62.01,-44.92,-1000.98,10.29,8.67,-26.55,323.70,120.60,29.10,26.3
2026/04/15 14:31:06.14,IMU,72.75,-58.11,-989.75,8.93,5.54,-25.48,322.65,121.80,27.75,26.4
2026/04/15 14:31:06.24,IMU,60.55,-74.22,-994.14,5.25,3.40,-26.82,321.60,121.50,28.05,26.4
2026/04/15 14:31:06.34,IMU,72.27,-67.87,-979.00,-1.20,-0.56,-23.82,322.20,124.80,27.30,26.2
2026/04/15 14:31:06.44,IMU,64.94,-63.96,-992.68,0.24,-1.63,-23.76,322.50,125.85,27.90,26.3
2026/04/15 14:31:06.54,IMU,83.01,-64.45,-1006.35,-3.13,-5.32,-26.97,321.90,126.00,27.75,26.4
2026/04/15 14:31:06.64,IMU,74.22,-57.13,-999.02,-8.98,-9.30,-24.48,323.25,128.10,27.90,26.5
2026/04/15 14:31:06.75,IMU,72.75,-51.27,-1003.91,-8.66,-12.18,-25.20,320.55,129.15,33.60,26.4
2026/04/15 14:31:06.85,IMU,59.57,-59.08,-1016.60,-9.22,-12.85,-25.44,323.55,131.55,28.95,26.4
2026/04/15 14:31:06.95,IMU,71.29,-71.78,-1034.67,-9.25,-15.37,-23.21,326.25,133.20,28.80,26.3
2026/04/15 14:31:07.05,IMU,73.73,-48.83,-1029.79,-8.94,-17.66,-24.01,328.95,135.45,28.50,26.4
2026/04/15 14:31:07.15,IMU,67.87,-35.64,-1050.29,-7.93,-21.72,-25.80,330.30,136.20,29.55,26.5
2026/04/15 14:31:07.25,IMU,64.94,-61.04,-1044.92,-5.15,-20.27,-25.50,331.80,138.45,29.55,26.5
2026/04/15 14:31:07.35,IMU,54.20,-53.22,-1051.76,-6.95,-17.57,-24.12,333.90,138.30,28.65,26.4
2026/04/15 14:31:07.45,IMU,62.01,-38.09,-1039.06,-3.77,-17.10,-24.37,333.90,139.80,28.20,26.4
2026/04/15 14:31:07.55,IMU,52.73,-31.25,-1028.32,-1.88,-17.35,-21.70,336.00,139.80,28.65,26.6
2026/04/15 14:31:07.65,IMU,41.99,-45.90,-1017.09,-0.05,-15.15,-21.52,335.85,142.35,30.30,26.4
2026/04/15 14:31:07.75,IMU,49.32,-53.71,-1016.60,-1.15,-10.05,-22.56,338.25,141.00,28.20,26.3
2026/04/15 14:31:07.85,IMU,47.36,-51.27,-1001.46,2.32,-4.16,-21.56,337.65,143.85,28.50,26.3
2026/04/15 14:31:07.95,IMU,58.11,-49.80,-997.07,5.40,-2.15,-25.61,339.75,143.25,28.95,26.4
2026/04/15 14:31:08.05,IMU,30.27,-38.57,-1006.35,5.46,0.92,-24.33,339.90,142.65,27.30,26.4
2026/04/15 14:31:08.15,IMU,45.90,-47.36,-998.54,4.15,7.35,-24.56,339.75,142.95,27.90,26.1
2026/04/15 14:31:08.25,IMU,41.02,-47.85,-1005.86,5.54,11.07,-25.15,340.05,143.70,28.95,26.3
2026/04/15 14:31:08.35,IMU,43.46,-77.64,-1015.14,4.56,14.08,-27.02,340.65,143.85,28.05,26.3
2026/04/15 14:31:08.45,IMU,57.13,-48.34,-1038.09,0.57,16.37,-22.33,340.35,144.15,29.55,26.3
2026/04/15 14:31:08.55,IMU,53.22,-44.43,-1047.85,-1.88,18.89,-25.27,341.55,144.00,28.65,26.3
2026/04/15 14:31:08.65,IMU,60.55,-68.85,-1020.51,1.58,21.12,-27.05,341.55,144.45,28.95,26.3
2026/04/15 14:31:08.75,IMU,71.29,-62.99,-1048.83,0.40,20.42,-24.67,341.40,145.35,29.10,26.3
2026/04/15 14:31:08.85,IMU,58.11,-50.29,-1046.88,-3.04,18.50,-25.79,340.50,144.45,30.45,26.3
2026/04/15 14:31:08.95,IMU,62.50,-53.22,-1039.55,-3.61,19.91,-24.24,339.75,147.00,30.45,26.3
2026/04/15 14:31:09.05,IMU,62.50,-66.89,-1028.32,-3.68,20.11,-27.13,339.90,147.30,28.80,26.4
2026/04/15 14:31:09.15,IMU,78.12,-56.64,-1005.86,-7.83,13.32,-25.40,340.35,146.85,29.85,26.5
2026/04/15 14:31:09.25,IMU,79.59,-47.85,-1023.93,-5.89,10.89,-28.64,340.05,147.00,29.70,26.5
2026/04/15 14:31:09.35,IMU,76.66,-44.92,-1009.77,-3.69,8.08,-27.24,340.35,149.10,30.30,26.3
2026/04/15 14:31:09.45,IMU,66.41,-63.48,-994.63,-1.84,7.14,-24.69,340.65,151.05,30.30,26.5
2026/04/15 14:31:09.55,IMU,68.85,-43.46,-985.35,-2.34,3.27,-24.93,342.90,151.05,29.85,26.4
2026/04/15 14:31:09.65,IMU,73.73,-40.04,-999.02,2.49,-2.82,-25.68,344.10,151.20,29.40,26.4
2026/04/15 14:31:09.75,IMU,72.75,-41.99,-997.07,5.12,-8.79,-25.05,344.10,153.45,30.45,26.3
2026/04/15 14:31:09.85,IMU,74.22,-51.76,-1009.77,6.51,-10.44,-24.34,347.40,152.40,30.00,26.4
2026/04/15 14:31:09.95,IMU,84.96,-38.09,-1021.97,5.80,-10.48,-26.27,347.85,151.65,30.75,26.3
2026/04/15 14:31:10.06,IMU,76.66,-34.67,-1027.34,13.73,-12.05,-26.36,348.15,153.15,30.75,26.2
2026/04/15 14:31:10.16,IMU,66.89,-52.73,-1029.30,13.96,-14.53,-27.60,350.40,151.20,30.45,26.4
2026/04/15 14:31:10.26,IMU,68.36,-56.15,-1040.53,14.22,-13.68,-23.01,352.20,149.40,30.75,26.4
2026/04/15 14:31:10.36,IMU,75.68,-53.22,-1054.20,19.05,-14.26,-25.22,353.55,148.35,29.85,26.4
2026/04/15 14:31:10.46,IMU,69.82,-47.36,-1044.92,20.47,-13.66,-26.08,355.35,146.85,29.55,26.3
2026/04/15 14:31:10.56,IMU,60.55,-60.06,-1041.99,20.22,-11.73,-24.30,357.75,146.25,30.00,26.4
2026/04/15 14:31:10.66,IMU,59.08,-48.83,-1045.90,20.19,-10.66,-24.08,357.15,144.15,30.30,26.6
2026/04/15 14:31:10.76,IMU,53.71,-62.01,-1032.23,16.92,-7.40,-26.50,358.95,144.00,30.00,26.3
2026/04/15 14:31:10.86,IMU,50.78,-55.18,-1025.39,18.40,-5.50,-24.39,358.35,143.85,29.10,26.3
2026/04/15 14:31:10.96,IMU,48.34,-63.96,-997.07,12.88,-2.21,-24.39,357.90,140.40,29.10,26.3
2026/04/15 14:31:11.06,IMU,51.76,-62.01,-996.58,10.64,-3.02,-25.24,360.00,140.25,27.60,26.4
2026/04/15 14:31:11.16,IMU,41.02,-69.34,-1003.42,7.81,-0.53,-23.11,360.90,138.45,29.10,26.3
2026/04/15 14:31:11.26,IMU,57.62,-57.62,-999.51,3.16,1.56,-26.74,358.95,137.55,27.15,26.5
2026/04/15 14:31:11.36,IMU,59.08,-63.96,-976.56,-0.69,3.08,-26.11,361.05,138.30,26.85,26.5
2026/04/15 14:31:11.46,IMU,64.94,-52.25,-1000.98,-4.34,0.64,-21.46,360.75,138.30,27.60,26.4
2026/04/15 14:31:11.56,IMU,57.62,-75.20,-1000.00,-9.74,3.73,-22.79,361.05,136.80,27.90,26.5
2026/04/15 14:31:11.66,IMU,77.64,-56.64,-1007.81,-12.34,5.34,-26.27,362.40,137.70,27.75,26.1
2026/04/15 14:31:11.76,IMU,55.66,-66.41,-1020.02,-17.27,0.79,-23.83,361.80,137.25,28.20,26.3
2026/04/15 14:31:11.86,IMU,67.87,-63.96,-1025.88,-17.68,-1.64,-28.19,361.65,136.95,29.85,26.3
2026/04/15 14:31:11.96,IMU,67.38,-64.94,-1057.62,-16.49,-1.70,-22.11,363.15,137.40,28.80,26.4
2026/04/15 14:31:12.06,IMU,63.96,-47.85,-1021.48,-20.52,-0.76,-27.18,363.45,137.40,29.85,26.6
2026/04/15 14:31:12.16,IMU,63.96,-54.20,-1062.99,-20.45,-3.15,-25.09,363.30,139.50,28.20,26.3
2026/04/15 14:31:12.26,IMU,74.22,-46.88,-1037.11,-17.92,-3.79,-23.96,363.30,138.30,28.95,26.3
2026/04/15 14:31:12.36,IMU,68.36,-54.20,-1036.62,-16.01,-5.23,-25.07,365.10,139.80,28.65,26.1
2026/04/15 14:31:12.46,IMU,45.90,-44.92,-1041.99,-15.11,-5.23,-25.30,366.00,139.20,28.80,26.3
2026/04/15 14:31:12.56,IMU,78.12,-32.71,-1017.09,-10.69,-4.60,-26.98,368.10,139.80,29.40,26.3
2026/04/15 14:31:12.66,IMU,59.57,-52.73,-1021.48,-8.32,-5.56,-26.11,368.40,141.00,28.95,26.3
2026/04/15 14:31:12.76,IMU,56.15,-52.73,-996.09,-2.95,-3.87,-26.23,368.25,137.40,29.85,26.4
2026/04/15 14:31:12.86,IMU,47.36,-28.32,-994.63,1.72,-2.51,-23.89,367.50,137.70,33.45,26.4
2026/04/15 14:31:12.96,IMU,59.57,-38.57,-996.58,5.86,0.20,-26.56,369.75,136.65,28.80,26.4
2026/04/15 14:31:13.06,IMU,64.94,-36.62,-1003.42,8.55,1.17,-26.22,369.30,135.90,30.60,26.2
2026/04/15 14:31:13.16,IMU,65.92,-49.32,-1020.51,9.94,4.36,-26.85,370.35,133.80,29.40,26.4
2026/04/15 14:31:13.27,IMU,51.76,-28.81,-1023.44,14.45,4.74,-26.76,369.75,133.20,30.30,26.2
2026/04/15 14:31:13.37,IMU,50.29,-50.29,-1032.71,16.62,8.90,-25.24,367.20,130.50,29.55,26.3
2026/04/15 14:31:13.47,IMU,47.85,-55.66,-1028.81,19.41,10.33,-27.35,366.45,129.00,27.75,26.4
2026/04/15 14:31:13.57,IMU,51.76,-45.90,-1048.83,16.06,14.02,-24.66,366.75,126.00,28.50,26.4
2026/04/15 14:31:13.67,IMU,50.29,-42.97,-1057.62,19.29,13.95,-26.73,365.55,125.10,27.60,26.4
2026/04/15 14:31:13.77,IMU,56.15,-56.64,-1036.13,15.57,12.05,-26.27,363.60,122.70,27.90,26.3
2026/04/15 14:31:13.87,IMU,59.57,-66.41,-1038.09,13.34,15.97,-27.87,360.75,118.95,30.45,26.3
2026/04/15 14:31:13.97,IMU,73.24,-62.50,-1033.69,12.51,14.96,-27.37,362.55,119.40,27.90,26.2
2026/04/15 14:31:14.07,IMU,65.43,-56.15,-1017.09,11.52,13.41,-28.20,360.90,117.60,27.75,26.3
2026/04/15 14:31:14.17,IMU,63.96,-55.18,-1012.70,7.56,12.38,-24.21,359.55,118.20,26.85,26.4
2026/04/15 14:31:14.27,IMU,63.96,-31.74,-995.61,6.05,11.08,-25.50,360.00,116.25,25.05,26.4
2026/04/15 14:31:14.37,IMU,74.22,-47.85,-995.61,4.58,8.08,-27.56,356.70,117.00,26.10,26.3
2026/04/15 14:31:14.47,IMU,61.04,-62.50,-976.07,0.92,2.09,-29.98,356.10,114.60,24.90,26.3
2026/04/15 14:31:14.57,IMU,81.54,-61.04,-986.33,-1.22,-0.22,-26.78,357.00,113.70,24.60,26.4
2026/04/15 14:31:14.67,IMU,73.73,-40.53,-993.16,-1.16,-4.08,-26.11,354.60,113.85,24.90,26.2
2026/04/15 14:31:14.77,IMU,70.80,-49.32,-1005.37,-0.95,-10.08,-27.39,355.80,113.85,24.15,26.4
2026/04/15 14:31:14.87,IMU,72.75,-77.15,-1034.18,-0.92,-12.97,-26.11,351.75,110.85,30.30,26.4
2026/04/15 14:31:14.97,IMU,67.38,-59.08,-1022.95,-2.08,-17.85,-28.28,355.50,112.95,24.60,26.4
2026/04/15 14:31:15.07,IMU,63.48,-58.11,-1032.23,0.97,-18.40,-24.94,355.80,112.65,25.50,26.4
2026/04/15 14:31:15.17,IMU,77.15,-48.34,-1053.22,1.41,-20.53,-21.26,353.40,112.05,25.80,26.3
2026/04/15 14:31:15.27,IMU,63.96,-54.69,-1043.95,2.05,-20.37,-26.31,356.10,112.35,25.95,26.4
2026/04/15 14:31:15.37,IMU,59.08,-51.76,-1042.97,1.70,-22.92,-22.96,355.95,111.30,26.10,26.3
2026/04/15 14:31:15.47,IMU,61.52,-60.06,-1043.95,4.04,-21.29,-22.07,355.35,110.40,27.00,26.3
2026/04/15 14:31:15.57,IMU,59.08,-46.88,-1037.60,5.11,-18.50,-22.88,357.00,110.55,25.05,26.3
2026/04/15 14:31:15.67,IMU,59.08,-49.32,-1038.09,2.78,-17.09,-22.69,355.95,109.80,25.80,26.2
2026/04/15 14:31:15.77,IMU,56.15,-43.95,-1021.00,4.73,-14.46,-24.07,355.80,107.40,25.50,26.3
2026/04/15 14:31:15.88,IMU,41.50,-52.73,-1004.88,5.70,-12.09,-22.15,353.85,102.00,30.60,26.1
2026/04/15 14:31:15.98,IMU,49.80,-44.92,-1010.74,5.97,-5.99,-22.57,355.50,106.80,25.80,26.3
2026/04/15 14:31:16.08,IMU,42.48,-46.39,-998.05,2.76,-3.08,-23.54,355.80,104.70,25.20,26.4
2026/04/15 14:31:16.18,IMU,51.27,-57.62,-993.16,6.20,-1.40,-23.03,354.60,103.95,25.20,26.2
2026/04/15 14:31:16.28,IMU,42.48,-66.89,-977.54,1.55,5.01,-21.53,354.30,103.95,27.75,26.3
2026/04/15 14:31:16.38,IMU,49.32,-50.78,-1000.98,-1.21,9.69,-23.08,351.75,103.20,26.70,26.3
2026/04/15 14:31:16.48,IMU,55.18,-62.99,-1009.28,-2.24,9.85,-24.07,351.15,101.55,25.35,26.3
2026/04/15 14:31:16.58,IMU,63.96,-61.52,-1021.48,-3.85,13.31,-22.13,349.35,103.35,25.05,26.3
2026/04/15 14:31:16.68,IMU,46.39,-60.06,-1018.55,-6.79,13.77,-24.84,346.95,102.45,24.90,26.1
2026/04/15 14:31:16.78,IMU,50.78,-53.22,-1030.27,-8.90,15.68,-22.34,346.20,103.65,25.20,26.3
2026/04/15 14:31:16.88,IMU,53.22,-55.18,-1044.92,-9.47,16.58,-23.77,345.15,104.70,25.50,26.3
2026/04/15 14:31:16.98,IMU,68.85,-56.64,-1042.48,-11.31,16.79,-20.95,343.05,106.80,25.80,26.3
2026/04/15 14:31:17.09,IMU,72.27,-51.27,-1030.27,-11.96,12.95,-24.83,342.15,106.65,24.90,26.3
2026/04/15 14:31:17.19,IMU,59.08,-41.50,-1028.32,-12.44,12.43,-23.74,339.00,108.30,24.30,26.3
2026/04/15 14:31:17.29,IMU,70.31,-45.90,-1023.44,-12.96,12.63,-21.17,338.85,108.45,24.90,26.4
2026/04/15 14:31:17.39,IMU,68.85,-49.32,-1013.18,-8.61,9.70,-21.59,339.00,109.50,25.80,26.3
2026/04/15 14:31:17.49,IMU,63.48,-53.22,-1011.23,-8.96,4.64,-21.25,336.60,109.65,24.90,26.4
2026/04/15 14:31:17.59,IMU,59.57,-32.23,-996.58,-5.50,0.66,-21.95,336.30,110.85,24.90,26.3
2026/04/15 14:31:17.69,IMU,58.11,-41.02,-1008.30,-3.23,-0.40,-22.06,335.40,111.75,24.60,26.3
2026/04/15 14:31:17.79,IMU,72.75,-39.55,-1000.98,1.05,-1.21,-20.76,334.05,110.85,24.45,26.4
2026/04/15 14:31:17.89,IMU,77.64,-40.53,-998.54,1.82,-5.53,-23.66,334.35,111.60,24.15,26.3
2026/04/15 14:31:17.99,IMU,63.96,-35.64,-1003.42,8.27,-9.98,-23.22,333.45,112.50,24.60,26.4
2026/04/15 14:31:18.09,IMU,48.83,-39.06,-995.61,10.31,-7.20,-22.33,333.90,112.95,25.05,26.2
2026/04/15 14:31:18.19,IMU,77.15,-40.04,-1002.44,13.52,-6.11,-24.14,333.45,113.70,25.80,26.6
2026/04/15 14:31:18.29,IMU,63.96,-44.92,-1034.67,15.53,-7.40,-22.84,332.40,114.00,26.40,26.4
2026/04/15 14:31:18.39,IMU,65.43,-44.92,-1038.57,17.80,-7.78,-22.89,333.00,113.10,25.20,26.7
2026/04/15 14:31:18.49,IMU,67.87,-44.92,-1051.76,20.74,-7.11,-22.18,333.00,111.90,25.95,26.4
2026/04/15 14:31:18.59,IMU,65.43,-48.34,-1051.27,20.58,-4.07,-20.78,332.70,112.95,25.05,26.4
2026/04/15 14:31:18.69,IMU,76.17,-47.36,-1051.27,23.22,-2.30,-23.44,332.25,110.40,25.50,26.6
2026/04/15 14:31:18.79,IMU,64.45,-59.57,-1038.57,20.78,-3.44,-23.76,331.80,109.65,25.50,26.3
2026/04/15 14:31:18.89,IMU,67.38,-67.38,-1020.02,19.50,-2.31,-22.29,330.75,111.15,26.70,26.4
2026/04/15 14:31:18.99,IMU,64.94,-59.57,-1032.23,16.78,0.53,-22.30,330.00,109.35,25.20,26.3
2026/04/15 14:31:19.09,IMU,74.22,-49.32,-1013.67,16.77,2.24,-24.24,329.10,108.30,26.10,26.2
2026/04/15 14:31:19.19,IMU,60.06,-56.64,-991.21,12.12,1.93,-23.07,328.65,109.05,26.40,26.3
2026/04/15 14:31:19.29,IMU,59.57,-70.31,-992.19,6.54,1.27,-21.90,327.60,109.50,26.85,26.3
2026/04/15 14:31:19.39,IMU,64.94,-70.31,-992.68,2.00,1.27,-21.74,326.10,110.25,26.85,26.5
2026/04/15 14:31:19.49,IMU,59.08,-64.94,-991.70,1.77,2.66,-20.86,326.85,110.25,26.40,26.3
2026/04/15 14:31:19.59,IMU,71.78,-42.97,-993.65,-5.96,0.40,-19.37,326.25,110.40,27.00,26.2
2026/04/15 14:31:19.69,IMU,62.50,-65.43,-985.35,-8.05,-1.07,-21.03,325.65,113.85,28.05,26.1
2026/04/15 14:31:19.79,IMU,62.01,-72.27,-996.09,-9.92,-2.05,-20.21,325.05,113.70,26.10,26.3
2026/04/15 14:31:19.89,IMU,73.24,-61.52,-1023.44,-11.70,-3.61,-22.88,325.20,114.15,25.95,26.3
2026/04/15 14:31:19.99,IMU,75.68,-48.83,-1018.07,-15.76,-3.31,-19.95,324.45,116.55,25.95,26.4
2026/04/15 14:31:20.09,IMU,53.71,-47.36,-1040.04,-16.87,-5.88,-19.09,324.45,119.85,27.00,26.3
2026/04/15 14:31:20.19,IMU,74.71,-57.13,-1034.67,-16.34,-8.13,-19.05,326.55,121.95,26.85,26.1
2026/04/15 14:31:20.30,IMU,62.01,-49.80,-1031.25,-16.31,-5.96,-19.56,327.75,123.00,28.05,26.4
2026/04/15 14:31:20.40,IMU,63.48,-53.71,-1041.99,-16.40,-8.59,-14.77,327.00,124.05,26.70,26.3
2026/04/15 14:31:20.50,IMU,77.64,-47.85,-1043.46,-13.87,-10.42,-16.56,327.30,125.10,28.20,26.3
2026/04/15 14:31:20.60,IMU,48.34,-39.55,-1027.34,-11.09,-10.34,-20.09,328.65,126.90,27.15,26.4
2026/04/15 14:31:20.70,IMU,49.80,-45.90,-1024.41,-7.57,-9.40,-18.82,329.85,128.85,27.15,26.2
2026/04/15 14:31:20.80,IMU,63.96,-47.85,-1009.28,-8.62,-5.85,-18.31,329.40,129.90,28.20,26.3
2026/04/15 14:31:20.90,IMU,56.15,-31.74,-983.89,-3.44,-8.15,-16.61,328.65,129.90,27.15,26.1
2026/04/15 14:31:21.00,IMU,48.34,-42.48,-1006.35,0.50,-6.12,-19.30,329.40,130.80,27.15,26.3
2026/04/15 14:31:21.10,IMU,51.76,-48.34,-1000.00,3.34,-1.09,-17.17,330.90,130.80,26.85,26.1
2026/04/15 14:31:21.20,IMU,41.02,-43.46,-1012.21,6.18,3.24,-17.95,331.05,130.50,25.20,26.4
2026/04/15 14:31:21.30,IMU,59.08,-37.11,-1009.28,8.11,4.90,-15.19,330.75,131.25,26.70,26.4
2026/04/15 14:31:21.40,IMU,55.18,-55.66,-1015.14,11.13,4.37,-18.50,330.90,131.85,27.60,26.0
2026/04/15 14:31:21.50,IMU,57.62,-51.76,-1028.32,11.78,8.69,-15.60,329.10,133.35,27.90,26.1
2026/04/15 14:31:21.60,IMU,56.15,-41.50,-1045.90,12.56,12.31,-18.88,330.60,133.05,28.20,26.2
2026/04/15 14:31:21.70,IMU,54.20,-55.66,-1024.90,14.21,15.16,-21.47,329.40,133.80,27.60,26.3
2026/04/15 14:31:21.80,IMU,63.48,-53.22,-1037.11,14.80,12.19,-20.71,329.85,132.60,26.40,26.1
2026/04/15 14:31:21.90,IMU,64.45,-58.11,-1039.55,12.80,15.77,-20.05,329.25,131.70,27.30,26.2
2026/04/15 14:31:22.00,IMU,54.20,-50.29,-1037.60,11.37,18.63,-17.81,328.35,131.55,27.90,26.5
2026/04/15 14:31:22.10,IMU,61.04,-62.50,-1030.27,11.07,17.82,-19.64,327.90,131.85,26.10,26.4
2026/04/15 14:31:22.20,IMU,69.34,-57.62,-1021.48,7.65,13.31,-19.66,325.65,132.75,27.00,26.2
2026/04/15 14:31:22.30,IMU,76.17,-51.76,-1007.81,7.48,10.87,-19.06,324.45,133.20,27.75,26.3
2026/04/15 14:31:22.40,IMU,78.61,-53.71,-1011.72,7.47,9.82,-15.34,326.25,131.70,28.50,26.3
2026/04/15 14:31:22.50,IMU,60.06,-74.71,-996.58,4.04,11.12,-15.88,325.65,132.45,27.75,26.4
2026/04/15 14:31:22.60,IMU,67.38,-53.22,-984.38,-0.50,5.47,-19.44,325.65,135.15,28.05,26.3
2026/04/15 14:31:22.70,IMU,90.33,-53.71,-982.42,-1.11,-2.71,-20.89,325.35,134.55,28.95,26.3
2026/04/15 14:31:22.80,IMU,60.06,-55.18,-986.33,-1.68,-2.69,-17.35,325.05,136.05,28.95,26.1
2026/04/15 14:31:22.90,IMU,60.06,-60.55,-991.70,-4.03,-5.91,-16.58,326.25,137.70,29.10,26.5
2026/04/15 14:31:23.00,IMU,-9.77,22.46,-1048.34,-8.97,11.41,2.24,323.70,135.15,30.90,26.1
2026/04/15 14:31:23.10,IMU,253.91,21.97,-990.23,-5.66,-17.47,8.04,326.70,137.70,29.85,26.4
2026/04/15 14:31:23.20,IMU,68.85,-81.54,-954.10,-3.42,-47.15,8.53,326.70,136.95,28.80,26.3
2026/04/15 14:31:23.30,IMU,-42.97,-65.43,-1046.88,-10.83,-4.37,22.69,331.05,136.95,26.70,26.4
2026/04/15 14:31:23.40,IMU,65.92,-168.95,-886.72,-11.76,-21.67,50.30,252.75,131.25,6.45,26.4
2026/04/15 14:31:23.51,IMU,-107.91,-142.09,-740.72,-6.71,-17.02,-62.72,257.25,135.30,43.05,26.6
