Timestamp,Sensor,AccX,AccY,AccZ,GyrX,GyrY,GyrZ,MagX,MagY,MagZ,Temp
2026/04/13 15:03:58.00,IMU,-11.23,-30.27,-1006.35,-0.38,1.02,-0.60,-51.60,18.00,10.20,26.5
2026/04/13 15:03:58.10,IMU,-13.67,-10.25,-1026.86,-1.73,0.79,-0.42,-53.70,18.15,10.35,26.3
2026/04/13 15:03:58.20,IMU,-17.09,-29.30,-1012.21,0.20,1.81,0.79,-54.15,18.00,10.95,26.6
2026/04/13 15:03:58.30,IMU,-17.58,-23.44,-1003.42,-0.16,1.23,0.51,-53.10,16.50,11.25,26.5
2026/04/13 15:03:58.40,IMU,-21.00,-9.77,-1008.79,-1.27,-0.43,1.26,-52.95,17.70,11.10,26.3
2026/04/13 15:03:58.50,IMU,-26.86,-20.02,-1018.07,-0.50,-0.26,1.01,-53.85,15.75,10.50,26.6
2026/04/13 15:03:58.60,IMU,-9.77,-11.23,-1008.79,-0.62,1.38,1.11,-53.40,18.75,10.50,26.4
2026/04/13 15:03:58.70,IMU,-19.04,-21.48,-1005.37,-0.48,0.43,-1.44,-53.25,18.60,11.55,26.8
2026/04/13 15:03:58.80,IMU,-14.65,-13.18,-1008.30,0.70,2.20,1.37,-53.10,16.80,10.95,26.4
2026/04/13 15:03:58.90,IMU,-21.00,-13.18,-1017.09,0.35,2.02,-1.64,-52.20,18.15,12.15,26.3
2026/04/13 15:03:59.00,IMU,-17.58,-33.69,-1014.16,0.19,1.87,1.85,-54.15,16.50,11.70,26.5
2026/04/13 15:03:59.10,IMU,-21.48,-23.93,-1021.00,-0.31,2.05,0.31,-53.40,17.55,10.50,26.4
2026/04/13 15:03:59.20,IMU,-35.64,-23.93,-1025.39,0.18,-0.24,0.58,-53.25,16.95,10.05,26.6
2026/04/13 15:03:59.30,IMU,-16.11,-15.63,-1009.77,0.96,-0.42,3.78,-52.35,17.55,11.25,26.6
2026/04/13 15:03:59.40,IMU,-21.97,-24.41,-1015.63,-0.57,-1.40,0.49,-54.15,17.55,11.25,26.3
2026/04/13 15:03:59.51,IMU,-16.11,-5.86,-1023.93,-1.19,-0.82,0.50,-52.50,16.95,10.80,26.7
2026/04/13 15:03:59.61,IMU,-14.65,-16.60,-1013.67,0.30,0.31,-0.60,-52.80,18.00,11.70,26.5
2026/04/13 15:03:59.71,IMU,-14.65,-21.48,-1021.48,-0.58,-1.08,-1.56,-54.60,18.00,10.95,26.6
2026/04/13 15:03:59.81,IMU,-29.30,-25.88,-989.75,0.95,-5.78,4.74,-53.40,16.50,12.45,26.6
2026/04/13 15:03:59.91,IMU,-15.14,-17.58,-1006.35,-0.32,-1.98,-1.35,-53.10,18.30,10.20,26.4
2026/04/13 15:04:00.01,IMU,-21.00,-16.11,-1024.41,-0.81,-2.48,1.76,-52.05,17.25,11.25,26.6
2026/04/13 15:04:00.11,IMU,-21.97,-16.60,-1026.37,-0.75,-0.31,-0.24,-52.95,18.15,10.80,26.4
2026/04/13 15:04:00.21,IMU,-18.07,-21.97,-970.21,1.60,-14.44,-3.68,-52.35,15.75,15.60,26.6
2026/04/13 15:04:00.31,IMU,-15.63,-31.25,-1004.39,0.55,1.92,-1.28,-53.25,16.65,17.25,26.5
2026/04/13 15:04:00.41,IMU,-22.95,-21.48,-1031.25,-0.60,-1.63,2.99,-52.05,17.55,16.65,26.4
2026/04/13 15:04:00.51,IMU,-20.51,-15.63,-1021.97,1.17,-0.31,1.81,-53.10,16.80,17.10,26.6
2026/04/13 15:04:00.61,IMU,-26.86,-18.07,-1017.58,-1.37,0.54,2.58,-53.40,17.25,17.10,26.3
2026/04/13 15:04:00.71,IMU,-215.82,-257.32,-2000.00,-3.55,14.65,5.39,-55.35,18.30,18.90,26.4
2026/04/13 15:04:00.81,IMU,-28.32,-25.39,-1022.95,1.66,0.73,-0.89,-54.45,18.15,14.70,26.5
2026/04/13 15:04:00.91,IMU,-15.14,-11.23,-1005.86,1.08,0.71,1.26,-53.25,17.40,15.75,26.3
2026/04/13 15:04:01.01,IMU,-23.44,-3.42,-1003.42,-0.34,0.40,-2.08,-53.25,17.70,15.15,26.6
2026/04/13 15:04:01.11,IMU,-35.16,-23.93,-974.12,-0.81,-2.61,3.63,-54.15,16.50,14.85,26.3
2026/04/13 15:04:01.21,IMU,-26.86,-16.11,-1017.09,-0.82,0.92,-0.92,-54.90,17.25,13.80,26.7
2026/04/13 15:04:01.31,IMU,-1.95,-20.51,-1017.09,-0.70,0.04,2.27,-52.95,16.20,14.70,26.5
2026/04/13 15:04:01.41,IMU,-41.02,-30.27,-1020.02,-1.80,1.39,-0.61,-54.45,18.60,15.75,26.4
2026/04/13 15:04:01.51,IMU,-30.76,-21.48,-1022.46,-1.04,-0.39,-0.76,-52.80,16.80,14.85,26.4
2026/04/13 15:04:01.61,IMU,-29.30,-21.48,-1003.91,-0.08,-0.54,1.02,-53.70,16.95,15.15,26.6
2026/04/13 15:04:01.71,IMU,-18.07,-23.93,-1024.90,0.63,0.39,-1.73,-52.95,17.70,13.95,26.4
2026/04/13 15:04:01.81,IMU,-27.34,-22.46,-1017.58,-0.43,1.19,2.00,-54.60,16.80,13.80,26.5
2026/04/13 15:04:01.91,IMU,-19.04,-22.95,-1020.51,1.63,2.55,0.58,-53.70,17.40,15.75,26.5
2026/04/13 15:04:02.01,IMU,-22.95,-20.51,-1013.18,-0.08,0.18,0.72,-53.10,17.25,15.60,26.5
2026/04/13 15:04:02.11,IMU,-28.32,-26.37,-1020.51,0.17,1.62,-0.10,-53.70,16.95,14.40,26.4
2026/04/13 15:04:02.21,IMU,-19.04,-31.74,-1005.37,-0.18,-0.86,-2.56,-53.70,16.95,14.70,26.5
2026/04/13 15:04:02.31,IMU,-28.32,-15.14,-1021.00,1.22,1.27,2.63,-53.10,17.25,15.60,26.4
2026/04/13 15:04:02.41,IMU,-23.93,-17.58,-1022.46,0.63,0.34,-0.85,-53.85,17.25,14.85,26.6
2026/04/13 15:04:02.51,IMU,-25.88,-6.84,-1022.95,1.15,1.04,1.00,-54.90,17.55,15.30,26.6
2026/04/13 15:04:02.61,IMU,-18.55,-10.74,-1016.60,-0.87,-0.27,2.60,-53.10,17.55,17.10,26.6
2026/04/13 15:04:02.71,IMU,-35.16,-14.16,-1022.46,1.66,2.05,-0.45,-53.10,17.25,15.30,26.3
2026/04/13 15:04:02.82,IMU,-21.48,-23.93,-1010.74,-0.73,0.25,1.05,-53.70,16.65,14.40,26.6
2026/04/13 15:04:02.92,IMU,-10.25,-12.21,-1000.98,0.79,-1.14,-1.56,-52.95,16.20,16.20,26.4
2026/04/13 15:04:03.02,IMU,-24.90,-1.46,-1014.16,0.24,-0.61,-1.56,-52.80,16.05,16.05,26.6
2026/04/13 15:04:03.12,IMU,-19.04,-13.67,-1016.60,2.31,2.69,1.95,-53.25,17.40,14.70,26.7
2026/04/13 15:04:03.22,IMU,-27.34,-24.90,-1011.23,0.53,1.58,-0.54,-53.40,16.50,15.60,26.4
2026/04/13 15:04:03.32,IMU,-17.09,-9.28,-1013.18,1.07,-2.12,0.70,-52.95,15.90,14.70,26.5
2026/04/13 15:04:03.42,IMU,-28.81,-23.44,-1021.48,-0.07,2.18,-0.72,-54.00,18.60,16.20,26.4
2026/04/13 15:04:03.52,IMU,-10.74,-20.51,-1020.51,0.97,-0.25,-1.99,-52.50,17.70,14.40,26.6
2026/04/13 15:04:03.62,IMU,-23.93,-18.07,-1013.18,-1.25,2.79,-0.98,-53.10,18.75,15.30,26.5
2026/04/13 15:04:03.72,IMU,-19.04,-29.79,-1003.42,0.44,-0.34,0.74,-53.70,16.95,15.45,26.3
2026/04/13 15:04:03.82,IMU,-27.83,-11.72,-1010.25,1.10,0.37,1.50,-54.60,17.25,17.10,26.6
2026/04/13 15:04:03.92,IMU,-30.27,-18.07,-1008.30,0.79,-0.98,1.39,-52.35,16.50,15.30,26.6
2026/04/13 15:04:04.02,IMU,-30.27,-20.51,-1012.21,-0.66,3.22,1.11,-54.15,17.55,15.60,26.5
2026/04/13 15:04:04.12,IMU,-26.86,-26.86,-1004.88,0.34,0.40,-1.25,-54.45,15.45,17.25,26.5
2026/04/13 15:04:04.22,IMU,-14.65,-10.25,-1009.77,-1.06,-0.47,1.21,-53.40,16.05,14.25,26.6
2026/04/13 15:04:04.32,IMU,-21.48,-23.44,-1012.21,-0.60,-0.08,1.45,-53.25,16.65,14.70,26.4
2026/04/13 15:04:04.42,IMU,-9.28,-16.11,-1006.84,2.15,0.67,1.92,-54.75,17.70,15.15,26.4
2026/04/13 15:04:04.52,IMU,-22.95,-9.77,-1024.90,0.72,-0.07,0.00,-54.45,16.20,16.20,26.6
2026/04/13 15:04:04.62,IMU,-22.95,-16.11,-1027.83,1.05,-0.97,1.80,-54.00,18.60,13.95,26.7
2026/04/13 15:04:04.72,IMU,-21.00,-14.65,-1017.58,-0.54,1.74,-0.13,-53.70,16.20,15.75,26.6
2026/04/13 15:04:04.82,IMU,-24.41,-21.97,-1022.95,0.42,0.20,1.21,-53.70,18.15,15.15,26.6
2026/04/13 15:04:04.92,IMU,-32.71,-21.97,-1002.93,-0.31,1.76,0.52,-52.95,16.95,14.40,26.6
2026/04/13 15:04:05.02,IMU,-29.30,-21.97,-1002.93,1.86,0.54,0.18,-53.40,16.50,14.55,26.7
2026/04/13 15:04:05.12,IMU,-23.44,-4.88,-1019.53,-0.87,1.05,0.44,-57.45,14.85,20.70,26.7
2026/04/13 15:04:05.22,IMU,-33.69,-13.67,-1019.04,-0.03,2.37,-2.86,-53.10,17.25,16.35,26.6
2026/04/13 15:04:05.32,IMU,-17.58,-7.81,-1005.86,0.95,-0.57,-1.73,-53.10,16.80,14.85,26.6
2026/04/13 15:04:05.42,IMU,-19.53,-24.41,-1015.63,-2.20,0.98,0.23,-52.80,16.50,14.85,26.4
2026/04/13 15:04:05.52,IMU,-13.18,-18.07,-1020.02,-1.52,3.08,-1.51,-52.35,17.25,15.60,26.5
2026/04/13 15:04:05.62,IMU,-29.30,-19.53,-1033.20,1.13,1.65,0.55,-54.00,17.40,15.75,26.5
2026/04/13 15:04:05.72,IMU,-17.09,-20.51,-993.65,1.08,0.04,3.02,-53.40,16.80,16.35,26.3
2026/04/13 15:04:05.82,IMU,-4.88,-27.83,-1029.79,0.71,0.92,0.37,-53.40,15.75,15.60,26.8
2026/04/13 15:04:05.92,IMU,-36.62,-25.88,-1024.90,0.53,2.31,0.21,-54.00,15.90,14.70,26.6
2026/04/13 15:04:06.03,IMU,-33.69,-13.18,-1009.77,1.03,0.21,-2.58,-53.85,18.30,14.55,26.6
2026/04/13 15:04:06.13,IMU,-12.70,-13.67,-1028.32,0.54,0.06,0.34,-55.35,17.25,14.85,26.8
2026/04/13 15:04:06.23,IMU,-22.46,-31.74,-1004.39,-0.86,0.45,-0.74,-52.95,18.15,14.40,26.5
2026/04/13 15:04:06.33,IMU,-25.39,-3.42,-1010.25,1.50,0.63,1.30,-53.10,18.00,13.50,26.7
2026/04/13 15:04:06.43,IMU,-20.02,-17.58,-1012.70,0.95,2.42,2.93,-53.10,17.25,14.25,26.5
2026/04/13 15:04:06.53,IMU,-22.46,-21.48,-1022.46,2.22,0.92,-0.60,-54.15,17.25,15.60,26.7
2026/04/13 15:04:06.63,IMU,-31.25,-21.48,-1017.58,0.76,1.71,-0.34,-53.40,17.25,15.60,26.6
2026/04/13 15:04:06.73,IMU,-22.95,-20.51,-1005.86,0.07,0.96,-0.07,-54.60,17.55,15.30,26.6
2026/04/13 15:04:06.83,IMU,-23.44,-16.11,-1008.30,-0.05,-0.57,2.40,-52.95,18.15,14.40,26.7
2026/04/13 15:04:06.93,IMU,-25.88,-13.18,-1017.09,-1.67,1.15,1.08,-52.95,18.15,15.45,26.5
2026/04/13 15:04:07.03,IMU,-7.81,-12.21,-1011.72,-0.93,1.05,-0.56,-53.25,18.15,15.15,26.7
2026/04/13 15:04:07.13,IMU,-14.65,-8.30,-1019.53,0.36,2.12,-1.05,-53.25,15.90,16.50,26.6
2026/04/13 15:04:07.23,IMU,-29.79,-20.02,-1008.30,-1.05,-2.44,1.50,-53.70,18.15,15.15,26.6
2026/04/13 15:04:07.33,IMU,-14.65,-11.23,-1022.46,-0.22,0.55,2.50,-54.60,18.30,14.55,26.6
2026/04/13 15:04:07.43,IMU,-36.62,-23.44,-1009.28,0.79,-1.15,2.22,-54.00,17.40,15.75,26.5
2026/04/13 15:04:07.53,IMU,-9.28,-9.28,-1010.74,0.94,-0.41,1.50,-53.25,17.70,15.45,26.5
2026/04/13 15:04:07.63,IMU,-22.95,-20.02,-1015.14,-0.38,-0.49,-0.87,-54.15,17.55,16.05,26.7
2026/04/13 15:04:07.73,IMU,-12.70,-15.14,-1021.00,1.63,-0.71,-2.24,-52.95,16.95,15.45,26.4
2026/04/13 15:04:07.83,IMU,-20.51,-23.44,-1023.93,-0.15,0.06,-1.37,-52.80,17.25,16.65,26.5
2026/04/13 15:04:07.93,IMU,-16.11,-23.93,-1018.55,0.43,2.76,-0.67,-54.60,17.25,16.05,26.6
2026/04/13 15:04:08.03,IMU,-28.81,-15.63,-1012.21,0.85,0.63,1.42,-53.10,16.80,15.30,26.5
2026/04/13 15:04:08.13,IMU,-10.74,-16.60,-1038.57,-1.86,-0.12,-1.34,-53.85,16.50,14.85,26.5
2026/04/13 15:04:08.23,IMU,-13.18,-16.60,-1017.58,-1.09,-0.63,0.08,-54.15,17.25,14.55,26.7
2026/04/13 15:04:08.33,IMU,-24.41,-21.97,-1031.74,-0.53,-0.05,-0.92,-54.00,16.95,16.50,26.6
2026/04/13 15:04:08.43,IMU,-14.16,-30.76,-1024.41,0.62,-1.53,0.35,-54.60,17.25,14.55,26.3
2026/04/13 15:04:08.53,IMU,-32.23,-26.37,-1016.60,0.43,-1.44,1.47,-53.25,16.95,15.45,26.7
2026/04/13 15:04:08.63,IMU,-20.02,-9.77,-1006.35,-1.34,1.61,0.78,-53.85,17.25,14.55,26.8
2026/04/13 15:04:08.73,IMU,-20.02,-14.65,-1014.65,0.44,1.44,1.84,-52.80,17.55,15.60,26.7
2026/04/13 15:04:08.83,IMU,-19.53,-21.97,-1009.28,-0.88,0.80,-2.65,-54.75,16.65,16.20,26.6
2026/04/13 15:04:08.93,IMU,-29.79,-20.51,-1013.67,-0.41,-0.24,0.69,-53.10,18.00,15.60,26.5
2026/04/13 15:04:09.03,IMU,-21.97,-15.14,-1021.48,-0.32,0.34,-1.21,-53.40,15.30,17.10,26.6
2026/04/13 15:04:09.13,IMU,-24.41,-23.93,-1013.67,-0.37,0.70,-1.01,-52.50,17.40,14.70,26.6
2026/04/13 15:04:09.23,IMU,-25.39,-21.48,-1018.07,-0.24,2.15,-0.58,-53.25,16.95,15.15,26.6
2026/04/13 15:04:09.34,IMU,-26.86,-22.46,-1007.32,1.52,-1.01,1.24,-53.70,17.70,16.50,26.6
2026/04/13 15:04:09.44,IMU,-15.63,-23.44,-1015.63,0.18,1.24,-0.11,-52.80,17.55,16.05,26.4
2026/04/13 15:04:09.54,IMU,-20.51,-19.04,-1012.70,0.31,0.21,1.22,-54.00,17.40,16.20,26.4
2026/04/13 15:04:09.64,IMU,-14.16,-6.84,-1005.37,0.29,-1.22,1.68,-53.70,18.15,16.20,26.6
2026/04/13 15:04:09.74,IMU,-21.48,-17.58,-1008.30,1.11,-0.28,1.17,-54.75,16.65,15.15,26.8
2026/04/13 15:04:09.84,IMU,-31.74,-18.55,-1016.60,0.71,2.72,0.86,-52.95,17.70,15.15,26.4
2026/04/13 15:04:09.94,IMU,-22.46,-18.55,-1012.70,-0.68,-0.53,1.29,-54.15,17.25,14.40,26.6
2026/04/13 15:04:10.04,IMU,-29.30,-21.00,-1000.49,0.87,2.35,-0.47,-56.25,16.20,16.20,26.7
2026/04/13 15:04:10.14,IMU,-23.93,-19.04,-1007.81,0.37,-0.15,-1.68,-52.95,15.90,16.20,26.6
2026/04/13 15:04:10.24,IMU,-23.44,-22.46,-1024.41,0.03,-0.15,0.60,-54.45,16.65,13.95,26.8
2026/04/13 15:04:10.34,IMU,-17.58,-23.44,-1012.21,-0.37,-0.18,1.06,-54.00,16.95,16.20,26.4
2026/04/13 15:04:10.44,IMU,-19.53,-18.55,-1004.88,2.80,0.11,0.75,-53.40,17.55,14.85,26.6
2026/04/13 15:04:10.54,IMU,-22.95,-16.60,-1021.48,-0.37,0.71,-2.41,-53.25,16.20,13.95,26.8
2026/04/13 15:04:10.64,IMU,-17.09,-19.04,-1016.11,-0.65,2.23,2.19,-53.40,18.30,14.85,26.4
2026/04/13 15:04:10.74,IMU,-22.46,-17.58,-1031.74,1.88,0.69,-2.02,-54.00,16.20,15.75,26.8
2026/04/13 15:04:10.84,IMU,-32.71,-17.58,-1016.11,-1.44,0.36,0.73,-54.00,16.65,14.70,26.6
2026/04/13 15:04:10.94,IMU,-41.50,-13.67,-1021.97,-2.04,1.94,-0.26,-53.10,17.25,15.30,26.5
2026/04/13 15:04:11.04,IMU,-28.32,-20.51,-1018.55,-0.76,1.47,0.73,-52.20,16.65,15.75,26.8
2026/04/13 15:04:11.14,IMU,-21.48,-11.23,-1021.97,-0.03,-0.08,-2.60,-53.70,17.70,15.45,26.4
2026/04/13 15:04:11.24,IMU,-31.25,-17.09,-1024.90,0.56,0.93,-0.59,-52.95,16.95,15.15,26.9
2026/04/13 15:04:11.34,IMU,-16.60,-10.25,-1011.23,-0.68,-0.33,2.95,-52.50,16.95,15.15,26.5
2026/04/13 15:04:11.44,IMU,-35.64,-18.07,-1017.09,-0.01,0.70,-2.31,-53.25,18.15,14.70,26.7
2026/04/13 15:04:11.54,IMU,-30.76,-21.48,-1020.02,-0.21,1.00,1.59,-53.25,17.40,15.45,26.7
2026/04/13 15:04:11.64,IMU,-25.88,-12.21,-1023.93,1.11,1.39,-0.93,-53.25,15.90,15.45,26.4
2026/04/13 15:04:11.74,IMU,-24.41,-22.46,-1021.48,-0.59,0.69,1.40,-52.50,15.90,15.45,26.7
2026/04/13 15:04:11.84,IMU,-26.86,-13.18,-1015.63,0.61,-0.80,1.14,-52.05,16.50,14.55,26.7
2026/04/13 15:04:11.94,IMU,-23.44,-16.60,-1018.07,0.66,0.15,3.87,-53.40,16.80,15.60,26.9
2026/04/13 15:04:12.04,IMU,-17.58,-19.04,-1014.65,-0.70,0.29,2.68,-52.80,17.25,15.30,26.4
2026/04/13 15:04:12.14,IMU,-13.18,-8.30,-1003.91,0.76,1.49,2.02,-53.10,17.25,16.05,26.5
2026/04/13 15:04:12.24,IMU,-37.60,-24.41,-1013.18,-0.21,0.71,1.31,-54.15,17.25,16.65,26.6
2026/04/13 15:04:12.34,IMU,-24.90,-21.48,-1026.37,-1.21,-0.34,-1.39,-53.40,16.80,14.85,26.8
2026/04/13 15:04:12.44,IMU,-31.74,-22.95,-1016.60,-0.17,0.98,3.49,-52.95,16.65,13.65,26.7
2026/04/13 15:04:12.54,IMU,-22.46,-22.95,-1005.86,-0.40,3.27,3.08,-52.80,17.25,14.85,26.8
2026/04/13 15:04:12.64,IMU,-27.34,-19.53,-1026.37,1.39,1.58,2.23,-53.70,16.95,15.45,26.6
2026/04/13 15:04:12.75,IMU,-19.53,-0.98,-1018.07,0.68,2.22,1.74,-53.70,15.90,15.15,26.7
2026/04/13 15:04:12.85,IMU,-37.60,-18.07,-1000.49,0.50,1.72,-1.10,-52.95,16.95,15.45,26.4
2026/04/13 15:04:12.95,IMU,-12.70,-15.14,-1014.65,0.05,1.12,1.20,-53.85,16.80,15.60,26.7
2026/04/13 15:04:13.05,IMU,-38.09,-29.79,-1009.28,1.34,0.67,0.00,-52.35,17.25,14.85,26.7
2026/04/13 15:04:13.15,IMU,-19.04,-13.67,-999.51,0.37,0.08,-0.96,-52.50,18.15,16.20,26.5
2026/04/13 15:04:13.25,IMU,-15.63,-21.48,-1000.98,0.95,0.86,-1.23,-56.40,16.80,19.20,26.7
2026/04/13 15:04:13.35,IMU,-20.51,-18.55,-1006.35,-1.00,-1.44,2.02,-54.90,18.00,14.55,26.9
2026/04/13 15:04:13.45,IMU,-29.79,-26.37,-1016.11,3.21,-0.48,2.37,-53.70,15.90,15.75,26.7
2026/04/13 15:04:13.55,IMU,-31.74,-20.02,-1013.67,-1.95,-0.15,2.03,-53.25,16.95,15.45,26.8
2026/04/13 15:04:13.65,IMU,-21.00,-6.84,-1007.32,0.92,-1.11,0.37,-53.25,16.65,13.65,26.6
2026/04/13 15:04:13.75,IMU,-27.83,-14.16,-1006.35,-0.82,1.67,0.49,-54.00,15.90,15.15,26.7
2026/04/13 15:04:13.85,IMU,-35.64,-11.72,-1008.79,0.85,-1.85,-0.41,-53.10,16.50,16.35,26.7
2026/04/13 15:04:13.95,IMU,-16.60,-26.37,-1010.25,-0.21,1.30,-0.40,-53.40,18.00,16.05,26.7
2026/04/13 15:04:14.05,IMU,-15.14,-14.16,-1020.51,-1.34,1.15,3.00,-53.40,16.50,16.05,26.4
2026/04/13 15:04:14.15,IMU,-18.07,-11.72,-1012.70,0.87,0.39,1.31,-52.50,16.20,16.20,26.9
2026/04/13 15:04:14.25,IMU,-34.67,-31.25,-1006.84,-0.08,2.44,-1.32,-52.80,14.55,14.85,26.5
2026/04/13 15:04:14.35,IMU,-18.55,-8.79,-1026.86,-0.77,-0.66,0.37,-53.40,17.55,14.25,26.8
2026/04/13 15:04:14.45,IMU,-24.90,-19.04,-1027.34,1.30,1.47,-1.12,-52.20,15.90,15.15,26.8
2026/04/13 15:04:14.55,IMU,-21.48,-21.97,-1023.93,0.82,1.69,-0.27,-52.50,17.40,15.15,26.8
2026/04/13 15:04:14.65,IMU,-37.60,-12.21,-1019.53,-0.63,-1.04,-1.93,-53.25,18.15,15.15,26.7
2026/04/13 15:04:14.75,IMU,-25.39,-20.02,-1011.72,1.60,1.91,-0.14,-52.80,17.55,16.65,26.7
2026/04/13 15:04:14.85,IMU,-30.27,-12.21,-1009.77,-0.38,-1.51,2.66,-53.10,15.75,15.30,26.7
2026/04/13 15:04:14.95,IMU,-25.88,-21.48,-1024.90,-0.05,0.36,1.31,-53.40,17.25,14.85,26.7
2026/04/13 15:04:15.05,IMU,-28.81,-9.77,-1003.42,0.78,0.79,-0.77,-53.25,16.20,15.15,26.3
2026/04/13 15:04:15.15,IMU,-17.58,-25.88,-1016.60,-0.55,-0.79,1.91,-52.50,18.15,15.75,26.7
2026/04/13 15:04:15.25,IMU,-7.32,-20.02,-1012.70,0.25,-0.08,-0.73,-53.25,16.65,14.70,26.6
2026/04/13 15:04:15.35,IMU,-41.50,-16.11,-1003.42,1.47,0.02,0.93,-54.00,16.65,15.15,26.8
2026/04/13 15:04:15.45,IMU,-29.79,-27.34,-1006.35,1.30,2.21,1.79,-52.05,16.50,14.55,26.7
2026/04/13 15:04:15.55,IMU,-33.20,-24.41,-1009.77,-0.60,0.94,2.17,-53.40,17.55,15.60,26.6
2026/04/13 15:04:15.65,IMU,-22.46,-29.79,-1008.30,-0.98,0.14,-2.66,-53.40,16.50,14.25,26.7
2026/04/13 15:04:15.76,IMU,-26.86,-11.23,-1006.84,0.20,-0.89,-0.73,-53.70,16.65,15.15,26.8
2026/04/13 15:04:15.86,IMU,-25.39,-19.53,-1017.09,0.60,-0.69,-1.53,-52.95,16.20,13.95,26.9
2026/04/13 15:04:15.96,IMU,-26.37,-18.07,-1001.46,0.36,-0.65,2.15,-52.35,17.25,15.60,26.7
2026/04/13 15:04:16.06,IMU,-20.51,-20.51,-1016.60,-1.76,-1.26,1.89,-53.10,17.25,16.05,26.7
2026/04/13 15:04:16.16,IMU,-12.70,-13.18,-1007.32,0.95,0.22,2.05,-54.00,16.65,15.45,26.8
2026/04/13 15:04:16.26,IMU,-25.88,-12.70,-1018.07,0.50,0.50,1.34,-55.35,17.25,14.25,26.6
2026/04/13 15:04:16.36,IMU,-19.53,-23.93,-1013.18,0.29,-1.07,-2.61,-53.70,17.40,14.70,26.7
2026/04/13 15:04:16.46,IMU,-10.25,-21.97,-1017.58,-0.21,1.45,-1.01,-52.05,17.55,14.55,26.7
2026/04/13 15:04:16.56,IMU,-24.41,-8.30,-1012.70,1.07,1.23,-0.57,-53.70,16.95,15.15,26.7
2026/04/13 15:04:16.66,IMU,-27.83,-41.99,-1018.07,2.04,-1.85,1.27,-54.00,17.40,13.95,26.7
2026/04/13 15:04:16.76,IMU,-30.76,-21.48,-1007.81,0.44,1.76,2.12,-52.35,17.25,15.30,26.5
2026/04/13 15:04:16.86,IMU,-21.00,-38.09,-1021.97,0.62,0.73,0.89,-53.85,16.50,14.85,26.7
2026/04/13 15:04:16.96,IMU,-28.32,-22.95,-1010.25,-0.13,0.15,-0.05,-52.80,18.00,14.85,26.8
2026/04/13 15:04:17.06,IMU,-19.53,-12.70,-1023.93,1.40,1.61,-1.16,-52.50,17.40,13.65,26.8
2026/04/13 15:04:17.16,IMU,-27.83,-18.07,-1013.67,-0.31,0.49,-0.57,-53.40,16.50,16.05,26.9
2026/04/13 15:04:17.26,IMU,-19.53,-16.11,-1022.95,-0.59,-0.15,2.25,-52.50,18.15,15.75,26.6
2026/04/13 15:04:18.12,IMU,-18.55,-23.93,-1016.60,-1.78,-0.43,-1.24,-52.20,16.95,15.45,26.7
2026/04/13 15:04:18.22,IMU,-17.58,-25.39,-1019.04,-0.08,2.34,-0.66,-53.10,16.80,14.85,26.7
2026/04/13 15:04:18.32,IMU,-26.86,-18.55,-1013.18,0.21,3.15,-0.82,-55.05,15.45,17.25,26.6
2026/04/13 15:04:18.42,IMU,-17.09,-21.97,-1025.88,0.63,0.87,-2.79,-51.45,16.95,15.15,26.7
2026/04/13 15:04:18.52,IMU,-27.83,-27.83,-1018.55,-0.34,-0.94,0.20,-52.80,16.80,14.25,26.6
2026/04/13 15:04:18.62,IMU,-23.93,-20.02,-1005.37,1.30,-0.27,-1.98,-52.35,15.75,14.85,26.6
2026/04/13 15:04:18.72,IMU,-33.20,-9.28,-1007.32,0.35,-0.09,1.07,-53.40,17.55,14.55,26.6
2026/04/13 15:04:18.82,IMU,-32.71,-20.02,-1012.70,-0.59,2.20,0.35,-53.25,16.65,14.70,26.7
2026/04/13 15:04:18.92,IMU,-30.76,-23.44,-1017.58,-0.71,0.82,1.61,-53.10,17.25,14.85,26.7
2026/04/13 15:04:19.02,IMU,-37.60,-14.16,-1011.23,0.66,1.05,-0.06,-52.50,19.35,15.15,26.5
2026/04/13 15:04:19.12,IMU,-29.30,-21.00,-1011.23,-0.20,0.74,-1.21,-53.10,16.05,14.85,26.7
2026/04/13 15:04:19.22,IMU,-24.90,-26.37,-1011.23,-1.17,1.71,-0.24,-54.00,16.20,15.75,26.9
2026/04/13 15:04:19.32,IMU,-19.53,-21.00,-1014.65,0.51,2.72,2.60,-53.40,16.80,15.30,26.6
2026/04/13 15:04:19.42,IMU,-35.64,-28.81,-1014.65,-1.74,-1.73,1.07,-53.25,17.70,18.30,26.7
2026/04/13 15:04:19.52,IMU,-24.90,-25.39,-1009.28,-0.76,-1.36,-2.07,-53.25,16.20,19.05,26.7
2026/04/13 15:04:19.62,IMU,-34.67,-20.02,-1009.28,0.79,0.60,0.82,-53.40,17.55,19.20,26.8
2026/04/13 15:04:19.72,IMU,-17.58,-18.55,-1016.11,0.69,2.49,0.50,-52.35,16.50,18.15,27.1
2026/04/13 15:04:19.82,IMU,-22.46,-24.41,-1019.04,1.16,-2.45,0.63,-52.05,17.55,14.85,26.3
2026/04/13 15:04:19.93,IMU,-31.74,-12.21,-1020.02,0.10,-0.85,-1.50,-54.00,16.20,14.40,26.9
2026/04/13 15:04:20.03,IMU,-28.32,-22.46,-1013.18,0.74,-0.40,0.65,-53.40,17.25,14.55,26.8
2026/04/13 15:04:20.13,IMU,-15.14,-17.58,-1020.02,-2.02,1.20,0.94,-52.35,16.80,13.50,27.0
2026/04/13 15:04:20.23,IMU,-18.55,-15.63,-1019.04,-0.73,-0.26,0.86,-52.80,15.75,14.85,27.0
2026/04/13 15:04:20.34,IMU,-28.81,-10.74,-1011.72,0.02,-1.31,1.27,-55.50,13.95,19.35,26.7
2026/04/13 15:04:20.44,IMU,-14.65,-10.25,-1019.04,-2.34,-1.84,1.62,-53.25,17.40,15.45,26.8
2026/04/13 15:04:20.54,IMU,-22.46,-21.00,-1003.42,-2.21,-1.49,-2.10,-52.80,17.25,13.80,26.9
2026/04/13 15:04:20.64,IMU,-28.81,-4.88,-1006.84,0.84,-2.56,2.23,-54.45,16.65,15.15,26.7
2026/04/13 15:04:20.74,IMU,-17.58,-17.09,-1015.14,0.59,-0.93,2.57,-52.35,16.05,16.35,26.5
2026/04/13 15:04:20.84,IMU,-26.37,-9.28,-1021.48,0.74,1.52,-3.39,-53.10,15.30,14.85,26.8
2026/04/13 15:04:20.94,IMU,-12.21,-19.53,-1008.30,-1.60,1.77,-0.19,-54.15,16.80,14.55,26.6
2026/04/13 15:04:21.04,IMU,-28.32,-17.09,-1013.18,0.24,1.11,-0.58,-52.20,17.40,15.15,26.7
2026/04/13 15:04:21.14,IMU,-30.27,-15.63,-1008.30,-0.85,1.51,0.27,-53.70,16.95,14.70,26.7
2026/04/13 15:04:21.24,IMU,-9.77,-22.46,-1016.11,0.68,1.33,-0.60,-53.10,18.00,14.85,26.5
2026/04/13 15:04:21.34,IMU,-27.83,-30.76,-1015.14,-0.26,0.08,-1.60,-52.35,16.80,14.85,26.7
2026/04/13 15:04:21.44,IMU,-24.41,-20.02,-1015.14,-0.11,0.37,-0.53,-52.05,14.85,15.60,26.7
2026/04/13 15:04:21.54,IMU,-24.90,-27.34,-1001.46,1.49,-1.61,0.27,-54.45,17.40,15.75,26.8
2026/04/13 15:04:21.64,IMU,-25.88,-9.77,-1010.25,0.62,2.28,-0.86,-53.10,18.30,13.50,26.8
2026/04/13 15:04:21.74,IMU,-25.39,-19.53,-1021.48,-0.35,0.50,2.15,-52.95,16.65,14.40,26.7
2026/04/13 15:04:21.84,IMU,-26.37,-1.46,-1017.58,0.50,-1.71,1.57,-54.15,16.80,14.55,26.8
2026/04/13 15:04:21.94,IMU,-25.39,-18.55,-1023.93,1.71,3.07,2.12,-52.80,16.80,13.80,26.8
2026/04/13 15:04:22.04,IMU,-18.55,-30.76,-1014.16,0.28,-0.44,2.31,-54.45,15.90,13.95,26.6
2026/04/13 15:04:22.14,IMU,-18.07,-19.04,-1013.67,0.73,-1.20,3.35,-53.10,15.30,14.25,27.1
2026/04/13 15:04:22.24,IMU,-17.58,-22.46,-1024.41,-0.36,0.80,0.68,-52.95,16.65,14.40,26.8
2026/04/13 15:04:22.35,IMU,-20.51,-22.46,-1022.95,-1.70,1.67,0.60,-53.10,18.00,14.85,26.8
2026/04/13 15:04:22.45,IMU,-16.60,-18.07,-1015.63,-2.15,2.30,0.82,-53.10,16.50,14.55,26.7
2026/04/13 15:04:22.55,IMU,-18.55,-24.41,-1007.32,0.95,1.62,-0.50,-52.50,15.90,15.45,26.8
2026/04/13 15:04:22.65,IMU,-28.32,-21.48,-1005.86,-1.33,1.40,3.06,-52.35,16.80,14.85,27.1
2026/04/13 15:04:22.75,IMU,-21.48,-20.51,-1019.53,0.76,-0.38,-0.65,-51.75,16.95,13.65,26.4
2026/04/13 15:04:22.85,IMU,-8.30,-12.70,-1012.21,-0.08,0.79,-1.75,-51.30,17.25,14.55,26.7
2026/04/13 15:04:22.95,IMU,-19.53,-17.58,-1007.32,0.77,0.92,-0.70,-53.10,18.00,14.85,26.8
2026/04/13 15:04:23.05,IMU,-31.74,-25.39,-1014.65,0.72,-0.27,-1.63,-54.90,16.05,14.25,26.8
2026/04/13 15:04:23.15,IMU,-25.88,-18.07,-1028.32,0.47,1.79,-0.66,-53.85,15.30,16.05,26.8
2026/04/13 15:04:23.25,IMU,-23.44,-14.65,-1003.91,-0.95,0.11,-1.21,-52.50,16.20,15.15,26.7
2026/04/13 15:04:23.35,IMU,-19.53,-10.25,-1002.44,0.16,1.91,0.35,-52.35,16.80,15.30,26.8
2026/04/13 15:04:23.45,IMU,-24.41,-27.34,-1008.79,0.10,1.21,3.30,-53.40,16.80,14.25,26.6
2026/04/13 15:04:23.55,IMU,-18.55,-7.32,-1024.41,1.03,-1.46,-2.62,-52.35,16.80,13.80,27.0
2026/04/13 15:04:23.65,IMU,-22.46,-20.51,-1011.72,-0.26,0.04,-2.12,-52.50,16.20,14.70,26.9
2026/04/13 15:04:23.75,IMU,-24.41,-13.67,-1009.77,0.53,2.30,2.31,-53.25,16.65,14.40,26.6
2026/04/13 15:04:23.85,IMU,-28.32,-25.39,-1011.72,1.08,-0.52,-0.05,-52.50,16.95,15.15,26.9
2026/04/13 15:04:23.95,IMU,-28.32,-26.37,-1011.23,0.76,1.39,2.15,-52.80,15.75,14.85,26.8
2026/04/13 15:04:24.05,IMU,-21.48,-12.70,-1012.21,-0.60,0.85,0.85,-53.25,18.60,13.95,26.7
2026/04/13 15:04:24.15,IMU,-16.60,-15.14,-1013.18,0.95,0.32,0.96,-51.45,16.65,14.70,26.8
2026/04/13 15:04:24.25,IMU,-12.21,-9.77,-1014.16,1.04,1.46,0.44,-52.35,18.00,14.25,26.9
2026/04/13 15:04:24.35,IMU,-27.34,-11.23,-1012.70,1.27,0.92,0.60,-52.20,17.70,13.95,26.7
2026/04/13 15:04:24.45,IMU,-23.44,-19.53,-1009.28,0.27,-2.17,-0.47,-51.75,17.40,14.70,26.7
2026/04/13 15:04:24.55,IMU,-7.32,-14.65,-1018.07,-0.15,-0.27,0.56,-52.80,18.30,14.55,26.8
2026/04/13 15:04:24.65,IMU,-19.53,-24.90,-1023.93,0.26,0.91,0.80,-52.50,15.90,15.75,26.8
2026/04/13 15:04:24.75,IMU,-21.00,-23.93,-1012.21,0.94,-2.08,-0.15,-52.95,16.95,13.95,27.0
2026/04/13 15:04:24.85,IMU,-31.25,-7.32,-1014.16,-1.91,2.24,-2.87,-52.80,16.50,14.55,26.7
2026/04/13 15:04:24.95,IMU,-18.07,-8.30,-1027.34,0.15,0.32,1.43,-52.80,16.50,14.25,26.4
2026/04/13 15:04:25.05,IMU,-24.90,-29.30,-1018.55,0.89,1.21,-0.72,-52.20,17.40,16.20,26.9
2026/04/13 15:04:25.15,IMU,-28.32,-23.93,-1017.09,2.32,2.27,1.36,-53.10,17.55,14.85,26.8
2026/04/13 15:04:25.25,IMU,-13.18,-29.79,-1014.16,-0.79,0.22,0.98,-53.25,16.95,14.40,26.8
2026/04/13 15:04:25.35,IMU,-23.93,-3.91,-1013.18,1.40,0.32,-0.20,-52.35,16.50,15.60,26.9
2026/04/13 15:04:25.45,IMU,-24.90,-20.02,-1007.81,-0.09,0.81,-2.13,-54.00,18.60,15.75,26.8
2026/04/13 15:04:25.56,IMU,-11.72,-24.90,-1018.55,-0.68,2.61,2.24,-53.10,17.25,15.30,26.8
2026/04/13 15:04:25.66,IMU,-15.14,-29.79,-1019.04,-0.27,0.92,1.41,-54.15,17.55,15.60,26.7
2026/04/13 15:04:25.76,IMU,-22.46,-8.30,-1006.84,0.63,0.07,-1.09,-52.95,16.65,14.55,26.8
2026/04/13 15:04:25.86,IMU,-12.21,-17.58,-1015.63,1.25,1.32,-1.15,-53.85,16.05,14.25,26.6
2026/04/13 15:04:25.96,IMU,-36.13,-23.44,-1015.63,-0.94,-0.18,-1.36,-53.70,16.95,15.15,27.0
2026/04/13 15:04:26.06,IMU,-22.46,-21.97,-1002.44,1.02,0.75,4.37,-52.05,16.80,13.80,26.9
2026/04/13 15:04:26.16,IMU,-13.67,-3.91,-1016.11,0.15,2.01,-2.66,-51.45,16.65,13.35,26.6
2026/04/13 15:04:26.26,IMU,-25.88,-17.09,-1015.14,1.24,1.30,-1.46,-53.40,17.55,13.50,27.0
2026/04/13 15:04:26.36,IMU,-14.16,-22.46,-1010.25,-0.98,1.24,3.78,-52.95,17.70,13.95,26.8
2026/04/13 15:04:26.46,IMU,-25.88,-13.18,-1007.32,1.25,0.12,1.33,-53.10,16.05,16.05,26.8
2026/04/13 15:04:26.56,IMU,-22.46,-20.51,-1010.74,1.50,-0.96,0.48,-51.75,16.95,13.95,26.8
2026/04/13 15:04:26.66,IMU,-21.97,-14.65,-1017.09,0.53,-1.59,1.03,-53.25,16.65,15.45,26.8
2026/04/13 15:04:26.76,IMU,-16.60,-14.16,-1009.28,0.92,-0.37,0.66,-52.50,16.20,14.40,27.0
2026/04/13 15:04:26.86,IMU,-21.48,-28.81,-1013.67,-1.57,0.16,2.03,-53.85,16.80,14.25,26.7
2026/04/13 15:04:26.96,IMU,-29.30,-16.11,-1021.00,-0.46,-1.60,-1.32,-52.80,17.55,14.85,27.1
2026/04/13 15:04:27.06,IMU,-23.44,-24.90,-1019.04,0.75,1.95,-1.46,-53.40,18.00,13.80,26.5
2026/04/13 15:04:27.16,IMU,-33.20,-18.07,-1013.18,0.14,0.76,-1.16,-53.10,15.75,13.80,27.0
2026/04/13 15:04:27.26,IMU,-32.23,-18.07,-1008.30,-0.81,-0.78,2.04,-52.35,16.50,14.25,26.9
2026/04/13 15:04:27.36,IMU,-29.30,-30.27,-1018.55,-0.87,1.03,-1.32,-53.70,16.65,15.75,27.0
2026/04/13 15:04:27.46,IMU,-22.46,-20.02,-1016.11,0.59,0.17,2.86,-54.00,17.70,15.45,26.8
2026/04/13 15:04:27.56,IMU,-24.41,-13.18,-1019.04,0.93,-2.71,2.92,-52.05,16.05,15.30,27.0
2026/04/13 15:04:27.66,IMU,-27.34,-18.55,-1005.86,1.21,1.10,-1.64,-52.95,16.65,14.40,27.1
2026/04/13 15:04:27.76,IMU,-30.27,-18.55,-1017.09,-0.57,0.50,0.79,-52.50,16.20,13.95,26.9
2026/04/13 15:04:27.86,IMU,-20.51,-15.14,-1014.65,-0.69,-0.70,-1.56,-53.10,15.75,15.30,26.8
2026/04/13 15:04:27.96,IMU,-19.53,-26.86,-1018.55,0.58,-0.73,-0.50,-52.35,17.25,14.55,26.8
2026/04/13 15:04:28.06,IMU,-36.13,-27.34,-1021.48,0.63,2.02,-1.50,-52.35,17.25,15.60,26.7
2026/04/13 15:04:28.16,IMU,-18.07,-14.16,-1017.09,1.16,0.90,-1.58,-53.25,17.40,14.70,26.8
2026/04/13 15:04:28.26,IMU,-27.34,-23.93,-1009.28,-0.34,1.34,2.27,-53.40,17.55,14.55,26.8
2026/04/13 15:04:28.36,IMU,-27.83,-21.00,-1013.67,-0.64,-0.70,0.92,-52.95,16.95,13.95,26.9
2026/04/13 15:04:28.46,IMU,-20.51,-21.00,-1006.84,-0.81,-1.11,1.73,-56.85,16.80,17.40,26.9
2026/04/13 15:04:28.56,IMU,-38.57,-14.65,-1009.28,0.35,1.38,3.92,-53.25,16.65,15.15,26.8
2026/04/13 15:04:28.66,IMU,-31.25,-19.53,-1008.79,0.67,0.26,-0.60,-53.10,18.00,15.60,26.7
2026/04/13 15:04:28.76,IMU,-23.93,-29.30,-1012.70,-0.97,1.04,-1.18,-52.80,16.50,14.25,26.9
2026/04/13 15:04:28.87,IMU,-21.48,-26.86,-996.58,0.68,1.36,-0.01,-53.40,17.25,15.30,27.1
2026/04/13 15:04:28.97,IMU,-23.44,-17.09,-1009.28,-1.19,0.89,1.07,-53.70,16.95,14.70,26.6
2026/04/13 15:04:29.07,IMU,-27.34,-15.63,-1003.91,-1.02,-1.37,1.84,-52.20,17.70,14.70,26.8
2026/04/13 15:04:29.17,IMU,-27.83,-13.18,-1019.53,0.34,-2.39,-2.87,-52.95,16.20,14.70,26.5
2026/04/13 15:04:29.27,IMU,-25.39,-24.90,-1015.14,0.79,0.03,-0.37,-52.95,16.95,12.60,26.7
2026/04/13 15:04:29.37,IMU,-35.64,-10.74,-1019.04,-0.89,1.34,3.79,-52.80,16.50,14.85,26.9
2026/04/13 15:04:29.47,IMU,-29.79,-33.20,-1001.95,-0.51,-0.41,-0.72,-57.75,16.20,19.05,27.0
2026/04/13 15:04:29.57,IMU,-15.63,-16.11,-1018.55,0.99,1.98,-2.60,-52.95,16.65,15.75,26.7
2026/04/13 15:04:29.67,IMU,-16.11,-20.02,-1018.07,-0.95,0.40,2.48,-52.20,15.45,14.40,26.7
2026/04/13 15:04:29.77,IMU,-21.97,-11.72,-1012.21,0.60,2.21,-1.56,-53.40,17.55,14.55,27.2
2026/04/13 15:04:29.87,IMU,-33.69,-17.09,-1006.35,-0.15,-0.97,-1.29,-52.50,17.40,15.75,26.9
2026/04/13 15:04:29.97,IMU,-26.86,-23.93,-1022.46,-0.55,0.84,2.23,-53.70,16.65,15.15,26.9
2026/04/13 15:04:30.07,IMU,-30.76,-7.81,-1027.34,0.31,1.72,-3.05,-52.50,16.65,15.45,26.9
2026/04/13 15:04:30.17,IMU,-21.48,-18.07,-1014.65,1.40,0.60,-0.18,-52.35,17.25,15.30,26.8
2026/04/13 15:04:30.27,IMU,-31.74,-12.21,-1006.35,1.06,1.66,1.03,-54.00,16.65,13.95,26.8
2026/04/13 15:04:30.37,IMU,-32.71,-9.77,-1024.90,-0.82,0.16,-1.28,-52.05,18.75,15.60,26.6
2026/04/13 15:04:30.48,IMU,-31.74,-27.34,-1012.70,0.02,0.30,0.73,-56.40,14.55,18.90,27.0
2026/04/13 15:04:30.58,IMU,-35.64,-28.32,-1034.18,1.19,0.40,-2.88,-52.35,18.75,14.55,26.8
2026/04/13 15:04:30.68,IMU,-14.16,-22.46,-1012.21,1.21,0.79,-0.31,-52.80,17.25,14.25,26.8
2026/04/13 15:04:30.78,IMU,-24.90,-22.95,-1021.00,-0.71,0.30,-0.88,-52.20,16.65,13.95,26.8
2026/04/13 15:04:30.88,IMU,-33.69,-13.18,-1022.46,0.77,-1.11,3.05,-52.95,16.65,15.75,27.0
2026/04/13 15:04:30.98,IMU,-35.16,-28.81,-1014.65,0.43,0.05,-1.92,-53.70,16.95,15.45,26.9
2026/04/13 15:04:31.08,IMU,-21.48,-21.48,-1006.84,-0.47,0.18,-0.91,-53.10,17.25,15.30,27.0
2026/04/13 15:04:31.18,IMU,-15.63,-24.90,-1010.74,-0.73,0.64,-1.75,-52.80,16.80,14.55,26.8
2026/04/13 15:04:31.30,IMU,-21.48,-27.83,-1019.53,1.19,1.73,1.39,-53.40,16.80,16.05,26.7
2026/04/13 15:04:31.40,IMU,-33.20,-13.67,-1013.67,0.19,1.37,-0.09,-53.70,15.90,13.95,26.8
2026/04/13 15:04:31.50,IMU,-32.23,-24.41,-1023.93,-0.36,-0.24,-2.50,-53.85,15.75,17.40,26.7
2026/04/13 15:04:31.60,IMU,-24.41,-15.14,-1011.72,-0.95,1.12,1.18,-52.35,17.25,16.05,27.0
2026/04/13 15:04:31.70,IMU,-27.34,-22.46,-1007.81,-0.03,-1.14,-0.79,-52.35,17.55,14.85,27.0
2026/04/13 15:04:31.80,IMU,-31.74,-20.51,-1016.60,0.44,4.04,2.34,-52.35,17.55,13.80,26.8
2026/04/13 15:04:31.90,IMU,-27.83,-32.23,-1006.84,-1.33,-0.18,1.77,-51.60,15.75,15.60,27.0
2026/04/13 15:04:32.00,IMU,-38.57,-34.67,-1013.18,1.65,-0.53,2.58,-52.80,16.50,15.30,27.0
2026/04/13 15:04:32.10,IMU,-7.81,-22.46,-1000.98,0.08,-0.76,0.77,-53.25,16.65,14.40,26.7
2026/04/13 15:04:32.20,IMU,-18.55,-17.09,-1014.65,0.34,0.61,0.60,-53.25,16.95,15.15,26.9
2026/04/13 15:04:32.30,IMU,-28.32,-8.30,-1013.18,0.83,0.96,1.88,-52.95,16.65,14.40,26.7
2026/04/13 15:04:32.41,IMU,-19.53,-27.83,-1004.39,-1.66,0.11,3.12,-51.45,15.45,14.70,26.9
2026/04/13 15:04:32.51,IMU,-35.16,-8.30,-1004.88,-0.79,2.08,1.75,-55.65,14.10,20.25,26.9
2026/04/13 15:04:32.61,IMU,-22.46,-16.11,-1021.00,-2.10,-1.06,-3.86,-53.10,16.80,13.80,26.9
2026/04/13 15:04:32.71,IMU,-12.70,-33.69,-1011.72,0.10,-0.61,2.28,-51.45,15.45,13.65,26.5
2026/04/13 15:04:32.81,IMU,-31.25,-19.04,-1001.95,0.76,1.46,0.06,-53.25,16.20,13.95,27.1
2026/04/13 15:04:32.91,IMU,-34.67,-16.11,-1017.58,-0.79,2.39,0.76,-52.50,16.95,15.75,27.0
2026/04/13 15:04:33.01,IMU,-28.32,-20.02,-1023.44,1.15,-0.23,-1.43,-51.45,16.20,15.75,27.1
2026/04/13 15:04:33.11,IMU,-34.67,-11.23,-1000.98,-0.65,0.69,0.63,-53.40,16.80,14.55,27.0
2026/04/13 15:04:33.21,IMU,-15.63,-17.09,-1012.70,1.54,0.60,3.00,-52.95,17.40,14.70,27.0
2026/04/13 15:04:33.31,IMU,-35.16,-11.23,-1012.70,-0.39,-1.69,-2.40,-52.80,17.55,14.85,27.0
2026/04/13 15:04:33.41,IMU,-40.53,-10.74,-1005.86,-0.16,1.43,0.02,-53.40,15.30,14.25,26.8
2026/04/13 15:04:33.51,IMU,-27.34,-20.51,-1019.04,1.38,-2.24,2.68,-53.70,17.70,13.65,27.1
2026/04/13 15:04:33.61,IMU,-7.81,-21.00,-1014.16,-0.03,-0.30,-0.28,-52.80,16.80,14.85,26.8
2026/04/13 15:04:33.71,IMU,-19.04,-18.55,-1013.67,0.05,0.32,4.06,-53.25,16.95,13.95,27.2
2026/04/13 15:04:33.81,IMU,-27.83,-13.67,-1011.23,-0.04,0.85,-1.08,-54.90,16.80,14.55,27.0
2026/04/13 15:04:33.91,IMU,-19.53,-19.04,-1026.37,-0.25,1.07,1.36,-51.75,17.40,14.70,27.2
2026/04/13 15:04:34.01,IMU,-13.67,-28.32,-1018.07,0.01,-0.02,0.18,-52.20,16.95,13.65,27.0
2026/04/13 15:04:34.11,IMU,-22.95,-9.28,-1015.14,-0.41,0.98,0.92,-51.60,18.30,14.25,26.7
2026/04/13 15:04:34.21,IMU,-26.86,-25.39,-1011.23,0.08,0.18,-1.60,-51.75,17.40,14.40,27.0
2026/04/13 15:04:34.31,IMU,-14.65,-25.88,-1022.46,-0.95,2.77,-0.31,-52.95,16.65,15.45,26.8
2026/04/13 15:04:34.41,IMU,-25.88,-24.41,-1019.53,0.70,0.56,0.10,-53.25,15.90,13.95,27.0
2026/04/13 15:04:34.51,IMU,-37.60,-9.77,-1015.63,-1.46,0.69,-1.15,-52.80,16.50,14.55,26.9
2026/04/13 15:04:34.61,IMU,-25.88,-14.16,-1004.88,1.05,-0.05,0.47,-53.10,16.50,14.55,27.0
2026/04/13 15:04:34.71,IMU,-19.53,-17.09,-1021.97,-1.06,0.67,-1.14,-53.25,16.95,14.40,26.9
2026/04/13 15:04:34.81,IMU,-15.14,-16.11,-1008.30,-1.08,-0.44,-0.33,-52.80,16.05,12.45,26.9
2026/04/13 15:04:34.91,IMU,-28.32,-20.02,-995.12,-0.24,0.40,0.08,-53.85,16.80,14.55,27.0
2026/04/13 15:04:35.01,IMU,-9.28,-30.76,-1010.74,-0.18,2.26,3.43,-53.10,16.50,13.80,26.9
2026/04/13 15:04:35.11,IMU,-20.51,-16.60,-1010.74,1.66,-1.49,-2.29,-53.25,15.90,13.95,26.8
2026/04/13 15:04:35.21,IMU,-14.16,-21.48,-1014.65,-1.03,0.89,-1.73,-54.15,16.80,14.85,26.8
2026/04/13 15:04:35.31,IMU,-15.63,-9.77,-1000.49,0.66,0.44,1.38,-53.40,16.05,14.85,27.0
2026/04/13 15:04:35.41,IMU,-6.84,-15.63,-1008.30,0.17,3.69,2.08,-54.60,16.80,15.30,27.0
2026/04/13 15:04:35.51,IMU,-22.95,-28.81,-1002.93,0.09,0.18,1.14,-53.10,15.75,13.80,26.8
2026/04/13 15:04:35.62,IMU,-22.95,-12.70,-1010.74,0.90,0.10,0.33,-52.05,16.50,14.85,27.1
2026/04/13 15:04:35.72,IMU,-11.72,-26.86,-1029.30,-0.42,-1.60,0.16,-52.80,18.00,13.80,26.8
2026/04/13 15:04:35.82,IMU,-18.07,-15.63,-1008.30,-0.15,-0.69,0.37,-52.20,16.20,13.95,27.0
2026/04/13 15:04:35.92,IMU,-16.11,-22.46,-1007.32,0.92,1.15,-0.79,-54.15,18.30,13.05,26.8
2026/04/13 15:04:36.02,IMU,-24.90,-28.32,-1020.51,1.54,-0.31,-0.56,-53.40,16.80,14.25,27.1
2026/04/13 15:04:36.12,IMU,-6.84,-20.51,-1001.95,0.12,1.34,-0.89,-52.80,14.55,14.55,27.0
2026/04/13 15:04:36.22,IMU,-35.64,-20.51,-1017.58,-0.29,0.74,2.56,-52.50,17.70,14.40,26.8
2026/04/13 15:04:36.32,IMU,-23.93,-31.74,-1009.77,0.27,-0.36,-2.21,-52.35,17.25,14.55,27.0
2026/04/13 15:04:36.42,IMU,-19.04,-23.93,-1009.77,0.31,0.98,3.56,-52.20,17.40,15.15,27.1
2026/04/13 15:04:36.52,IMU,-29.30,-24.41,-1011.72,-0.80,0.65,-1.89,-53.10,16.80,13.05,27.1
2026/04/13 15:04:36.62,IMU,-24.90,-10.25,-1017.58,1.17,1.57,1.40,-53.85,16.80,14.25,26.9
2026/04/13 15:04:36.72,IMU,-25.88,-10.74,-1014.65,0.53,-0.65,1.89,-53.40,16.05,14.55,27.1
2026/04/13 15:04:36.82,IMU,-21.97,-21.48,-1021.48,1.26,0.75,0.06,-53.70,16.65,14.70,27.0
2026/04/13 15:04:36.92,IMU,-33.20,-26.37,-1014.65,0.78,1.01,-0.04,-53.10,16.50,14.25,27.1
2026/04/13 15:04:37.02,IMU,-31.25,-24.41,-1025.39,0.74,-0.17,0.22,-54.15,16.05,16.05,27.1
2026/04/13 15:04:37.12,IMU,-17.09,-4.39,-1009.28,-0.66,-1.34,-1.66,-52.05,17.55,14.25,26.8
2026/04/13 15:04:37.22,IMU,-23.93,-37.11,-1008.30,-0.02,-0.42,-1.83,-52.95,16.95,15.75,26.9
2026/04/13 15:04:37.32,IMU,-24.90,-21.48,-1035.64,1.56,2.05,-0.44,-52.50,16.20,15.15,26.8
2026/04/13 15:04:37.42,IMU,-20.51,-19.53,-1016.11,0.88,0.21,-0.87,-52.35,16.50,13.05,27.0
2026/04/13 15:04:37.52,IMU,-32.71,-28.81,-1015.63,-0.35,0.00,0.96,-53.25,15.90,13.65,26.8
2026/04/13 15:04:37.62,IMU,-13.67,-24.41,-1028.32,1.58,2.75,0.62,-52.80,16.80,13.80,27.2
2026/04/13 15:04:37.72,IMU,-19.04,-17.58,-1011.72,-0.25,1.34,-1.65,-53.10,16.80,14.55,27.0
2026/04/13 15:04:37.82,IMU,-19.53,-24.90,-1007.81,-0.52,0.37,1.27,-52.05,17.25,13.80,26.9
2026/04/13 15:04:37.92,IMU,-29.79,-19.04,-1030.27,0.27,0.21,-1.20,-52.80,16.80,14.25,27.0
2026/04/13 15:04:38.02,IMU,-26.86,-24.41,-1004.39,0.32,1.27,1.92,-51.75,16.65,13.65,27.0
2026/04/13 15:04:38.12,IMU,-26.86,-16.60,-1012.21,-0.68,1.44,-2.88,-53.85,17.55,15.30,27.2
2026/04/13 15:04:38.22,IMU,-26.37,-21.97,-1006.35,0.19,0.51,0.82,-53.70,16.20,14.40,27.1
2026/04/13 15:04:38.32,IMU,-24.90,-18.55,-1015.14,-0.13,-0.54,1.39,-52.80,16.80,14.55,26.7
2026/04/13 15:04:38.42,IMU,-22.46,-22.46,-1005.37,-0.08,-0.73,1.15,-52.95,17.40,13.35,27.1
2026/04/13 15:04:38.52,IMU,-24.41,-5.37,-1016.60,-0.67,-1.04,1.50,-52.50,15.45,14.70,26.8
2026/04/13 15:04:38.62,IMU,-19.04,-14.65,-1020.51,-0.10,2.11,0.77,-53.25,17.40,14.40,27.1
2026/04/13 15:04:38.73,IMU,-14.16,-22.46,-1022.95,0.35,-1.22,-0.92,-52.35,17.55,14.85,26.9
2026/04/13 15:04:38.83,IMU,-24.41,-29.79,-1022.46,1.95,-0.75,1.56,-53.85,17.25,14.25,27.3
2026/04/13 15:04:38.93,IMU,-30.27,-11.23,-1021.00,1.34,0.34,-0.29,-54.00,16.95,13.95,27.0
2026/04/13 15:04:39.03,IMU,-20.02,-18.55,-1026.37,0.61,0.81,-0.18,-52.95,17.40,14.55,26.7
2026/04/13 15:04:39.13,IMU,-21.48,-22.46,-1018.55,-1.81,1.90,0.15,-52.80,15.75,14.25,27.0
2026/04/13 15:04:39.23,IMU,-17.09,-16.11,-1023.93,-0.41,0.99,-0.16,-53.10,16.80,14.55,26.8
2026/04/13 15:04:39.33,IMU,-27.83,-21.48,-1019.04,0.57,0.36,0.38,-52.80,16.80,14.85,27.0
2026/04/13 15:04:39.43,IMU,-20.02,-20.02,-1017.58,-1.31,0.54,1.18,-51.75,16.95,15.45,26.9
2026/04/13 15:04:39.53,IMU,-20.02,-15.14,-1016.11,0.53,0.05,0.95,-52.20,16.20,14.70,27.0
2026/04/13 15:04:39.63,IMU,-11.72,-21.97,-1005.37,-0.05,-1.41,0.44,-56.25,15.90,17.55,27.0
2026/04/13 15:04:39.73,IMU,-17.58,-28.81,-1010.74,1.27,-2.02,1.22,-52.50,16.20,13.95,27.0
2026/04/13 15:04:39.83,IMU,-24.90,-22.46,-1014.65,1.74,-0.12,1.45,-53.10,17.55,15.30,27.2
2026/04/13 15:04:39.93,IMU,-15.14,-18.07,-1012.70,0.59,-0.01,1.27,-52.50,17.40,14.40,26.8
2026/04/13 15:04:40.03,IMU,-20.02,-21.97,-1015.63,1.24,0.66,-1.80,-52.05,16.50,12.75,27.2
2026/04/13 15:04:40.13,IMU,-19.04,-17.09,-1021.00,-0.79,-1.06,2.11,-51.75,16.95,15.15,26.8
2026/04/13 15:04:40.23,IMU,-30.27,-20.51,-1002.44,1.39,1.14,-4.40,-53.10,17.55,14.25,26.8
2026/04/13 15:04:40.33,IMU,-18.55,-22.46,-1014.65,0.82,-0.27,1.24,-54.60,16.80,15.30,27.1
2026/04/13 15:04:40.43,IMU,-29.30,-17.09,-1013.18,0.53,1.02,-2.30,-52.05,16.05,14.85,26.7
2026/04/13 15:04:40.53,IMU,-20.51,-12.21,-1015.63,0.11,2.08,0.74,-53.70,18.15,15.15,27.0
2026/04/13 15:04:40.63,IMU,-10.74,-21.00,-1004.39,0.07,0.40,-0.32,-57.15,13.80,19.20,27.1
2026/04/13 15:04:40.73,IMU,-25.88,-21.48,-1010.74,-1.02,0.63,-1.60,-52.05,16.50,14.25,27.0
2026/04/13 15:04:40.83,IMU,-21.48,-23.93,-1006.84,-0.97,-0.25,-1.98,-52.95,16.65,13.35,26.8
2026/04/13 15:04:40.93,IMU,-14.16,-15.63,-1013.18,0.05,0.05,0.36,-53.25,17.70,13.65,26.9
2026/04/13 15:04:41.03,IMU,-18.55,-17.09,-1009.77,0.24,2.10,-0.82,-52.05,16.80,14.55,26.8
2026/04/13 15:04:41.13,IMU,-19.53,-26.37,-1018.07,-0.87,0.66,0.44,-53.10,16.50,14.85,26.8
2026/04/13 15:04:41.23,IMU,-36.13,-31.74,-1011.23,1.79,-0.63,1.12,-53.10,18.00,14.85,27.0
2026/04/13 15:04:41.33,IMU,-27.83,-19.53,-1011.72,-0.18,2.44,0.46,-50.85,16.05,14.85,26.8
2026/04/13 15:04:41.43,IMU,-26.86,-21.00,-1009.28,2.61,-1.08,-1.13,-52.20,16.95,13.95,27.0
2026/04/13 15:04:41.53,IMU,-21.48,-17.58,-1015.63,0.50,-1.65,-1.98,-52.95,16.65,14.40,27.0
2026/04/13 15:04:41.64,IMU,-10.74,-32.71,-1024.90,1.56,0.29,1.64,-52.20,17.40,13.95,27.0
2026/04/13 15:04:41.74,IMU,-18.07,-16.11,-1019.04,3.04,-0.30,0.39,-53.10,16.50,14.25,27.0
2026/04/13 15:04:41.84,IMU,-21.00,-15.14,-994.63,1.18,1.47,1.57,-52.20,16.95,14.70,26.8
2026/04/13 15:04:41.94,IMU,-20.02,-19.53,-1007.81,-0.41,1.32,-0.63,-52.95,16.95,15.15,27.2
2026/04/13 15:04:42.04,IMU,-20.51,-14.65,-1021.00,0.27,-0.18,1.60,-52.80,17.55,14.25,27.0
2026/04/13 15:04:42.14,IMU,-31.74,-37.60,-1023.44,0.00,-0.70,0.54,-53.10,16.50,14.85,27.0
2026/04/13 15:04:42.24,IMU,-30.76,-17.58,-1034.18,1.73,1.54,2.02,-53.10,16.50,14.85,26.8
2026/04/13 15:04:42.34,IMU,-25.39,-18.07,-1018.07,0.25,-0.87,1.28,-52.50,17.40,14.70,26.8
2026/04/13 15:04:42.44,IMU,-17.58,-8.79,-1019.04,-0.47,-1.37,0.10,-52.50,16.20,15.15,27.2
2026/04/13 15:04:42.54,IMU,-30.76,-2.44,-1018.55,0.67,-0.90,-2.25,-53.40,15.75,15.30,26.7
2026/04/13 15:04:42.64,IMU,-25.88,-36.13,-1026.37,-0.15,-1.57,-1.21,-52.80,16.05,14.25,27.1
2026/04/13 15:04:42.74,IMU,-31.74,-17.58,-1014.16,-1.05,-1.02,0.27,-52.95,16.20,14.40,26.8
2026/04/13 15:04:42.84,IMU,-20.51,-19.53,-1013.18,-0.25,-1.71,1.01,-53.40,18.00,14.85,26.8
2026/04/13 15:04:42.95,IMU,-24.41,-27.83,-1022.95,1.71,0.14,-0.47,-53.10,16.50,13.50,27.4
2026/04/13 15:04:43.05,IMU,-10.74,-30.76,-1015.14,1.54,-2.06,1.72,-52.95,15.45,13.95,27.1
2026/04/13 15:04:43.15,IMU,-22.46,-25.39,-1014.65,-0.49,1.21,0.38,-53.40,14.85,14.25,27.1
2026/04/13 15:04:43.25,IMU,-26.86,-21.97,-1006.84,-1.41,0.91,0.83,-53.10,17.25,14.25,26.8
2026/04/13 15:04:43.35,IMU,-5.37,-16.60,-1004.39,-0.04,1.13,-0.82,-52.20,16.65,14.70,27.2
2026/04/13 15:04:43.45,IMU,-22.46,-14.65,-1007.32,0.59,1.36,-1.52,-52.50,15.90,13.95,27.0
2026/04/13 15:04:43.55,IMU,-11.72,-20.02,-1006.35,2.28,0.50,0.05,-52.35,18.00,14.85,27.1
2026/04/13 15:04:43.65,IMU,-30.76,-20.02,-1000.49,-0.94,0.24,0.30,-52.95,16.65,14.70,27.0
2026/04/13 15:04:43.75,IMU,-29.79,-23.93,-1010.74,-0.04,2.61,-1.02,-53.25,17.40,14.70,27.1
2026/04/13 15:04:43.85,IMU,-10.25,-20.51,-1014.16,1.63,-1.26,1.86,-52.05,16.50,13.80,26.8
2026/04/13 15:04:43.95,IMU,-17.09,-27.83,-1008.30,-0.17,1.26,1.78,-53.70,16.65,14.70,27.1
2026/04/13 15:04:44.05,IMU,-12.21,-9.77,-1015.63,0.70,-1.56,-1.05,-53.10,16.50,14.55,27.0
2026/04/13 15:04:44.15,IMU,-36.13,-10.25,-1015.14,0.09,-0.16,0.15,-53.70,15.90,13.35,26.8
2026/04/13 15:04:44.25,IMU,-23.93,-11.23,-1022.46,-0.07,0.66,-1.40,-52.35,16.05,13.50,26.9
2026/04/13 15:04:44.35,IMU,-22.46,-25.88,-1016.11,-0.83,1.11,-0.49,-52.35,15.75,13.80,27.2
2026/04/13 15:04:44.45,IMU,-32.23,-18.55,-1005.37,-0.37,0.84,-1.41,-53.25,16.65,13.95,27.0
2026/04/13 15:04:44.55,IMU,-29.30,-35.64,-1030.27,-0.23,-0.70,-1.48,-52.05,16.50,15.60,27.2
2026/04/13 15:04:44.65,IMU,-27.34,-12.70,-1022.95,-0.56,1.28,0.21,-53.10,15.75,14.25,27.0
2026/04/13 15:04:44.75,IMU,-28.81,-6.35,-1021.97,-0.01,-0.75,0.27,-53.10,16.05,14.25,26.8
2026/04/13 15:04:44.85,IMU,-16.60,-23.44,-1008.30,0.36,0.99,1.37,-53.25,16.95,15.45,27.0
2026/04/13 15:04:44.95,IMU,-32.71,-19.04,-1022.95,1.36,0.41,1.33,-54.00,16.95,14.40,27.2
2026/04/13 15:04:45.05,IMU,-32.23,-21.48,-1021.00,-0.10,2.92,0.52,-52.05,14.85,14.85,27.2
2026/04/13 15:04:45.15,IMU,-31.74,-19.53,-1014.65,1.41,-0.04,0.67,-53.10,17.25,15.60,27.2
2026/04/13 15:04:45.25,IMU,-21.00,-29.30,-1008.30,1.82,-1.47,0.10,-53.25,17.70,13.95,27.2
2026/04/13 15:04:45.35,IMU,-21.97,-16.11,-1012.70,-0.28,-0.33,0.69,-53.10,17.25,15.60,27.1
2026/04/13 15:04:45.45,IMU,-17.58,-8.30,-1029.30,-0.98,1.70,-2.11,-52.80,17.25,14.55,27.0
2026/04/13 15:04:45.55,IMU,-12.70,-30.76,-1009.77,0.63,0.05,-0.76,-52.05,16.05,15.60,27.1
2026/04/13 15:04:45.65,IMU,-31.25,-12.70,-1010.74,-0.84,2.98,-2.34,-52.80,17.55,15.30,27.3
2026/04/13 15:04:45.75,IMU,-25.88,-18.07,-1016.11,-0.75,1.08,-1.80,-54.00,16.20,13.95,27.0
2026/04/13 15:04:45.85,IMU,-31.25,-17.09,-1008.79,-0.63,2.01,-3.88,-52.80,16.05,14.55,27.0
2026/04/13 15:04:45.95,IMU,-21.97,-12.21,-1017.58,-0.53,-0.57,1.15,-53.25,17.40,15.75,27.3
2026/04/13 15:04:46.06,IMU,-30.27,-20.02,-1022.46,-1.22,0.48,1.82,-52.50,16.20,15.45,27.1
2026/04/13 15:04:46.16,IMU,-31.74,-18.55,-1007.81,0.40,0.65,1.79,-53.10,16.80,14.25,26.8
2026/04/13 15:04:46.26,IMU,-14.16,-19.04,-1014.16,0.16,0.15,-3.63,-52.95,16.95,13.35,27.1
2026/04/13 15:04:47.16,IMU,-20.02,-23.44,-1014.65,-0.87,0.21,-0.03,-51.75,16.65,13.95,27.2
2026/04/13 15:04:47.26,IMU,-19.04,-14.16,-1000.00,-0.05,-1.65,-0.62,-52.05,17.25,14.85,27.0
2026/04/13 15:04:47.36,IMU,-26.37,-13.67,-1016.11,0.93,0.12,-0.79,-52.20,17.40,14.70,26.8
2026/04/13 15:04:47.46,IMU,-29.30,-14.65,-1018.55,-0.24,3.44,-2.13,-53.25,15.90,15.15,27.3
2026/04/13 15:04:47.56,IMU,-21.48,-8.79,-1018.55,0.49,1.46,1.92,-52.05,16.05,15.30,27.2
2026/04/13 15:04:47.66,IMU,-23.93,-8.30,-1011.72,-1.37,1.24,2.79,-53.10,16.80,14.55,27.1
2026/04/13 15:04:47.76,IMU,-32.23,-25.88,-1032.23,-0.75,0.75,0.63,-54.00,16.20,13.95,27.3
2026/04/13 15:04:47.86,IMU,-25.39,-12.70,-1017.58,-0.62,0.00,1.11,-52.35,16.05,15.30,27.2
2026/04/13 15:04:47.96,IMU,-28.81,-26.86,-1005.37,1.06,0.11,-1.77,-52.80,16.50,14.85,26.9
2026/04/13 15:04:48.06,IMU,-31.25,-20.51,-1021.48,-1.07,-0.14,0.50,-53.25,17.40,14.70,27.1
2026/04/13 15:04:48.16,IMU,-32.71,-31.25,-1023.93,0.03,1.18,0.40,-52.50,16.20,14.70,27.2
2026/04/13 15:04:48.26,IMU,-24.90,-23.44,-1015.14,-0.11,1.53,-0.22,-52.20,17.70,14.70,27.3
2026/04/13 15:04:48.36,IMU,-19.04,-16.60,-1028.81,0.09,0.72,0.17,-53.85,16.80,14.85,27.0
2026/04/13 15:04:48.46,IMU,-19.04,-26.86,-1010.25,0.41,-0.38,0.14,-52.20,16.20,15.15,27.0
2026/04/13 15:04:48.56,IMU,-27.83,-20.02,-1021.00,0.10,0.22,-0.59,-53.25,16.95,13.95,27.1
2026/04/13 15:04:48.66,IMU,-28.81,-11.23,-1031.25,-0.64,-0.24,-0.02,-53.10,16.50,14.55,27.1
2026/04/13 15:04:48.76,IMU,-16.60,-13.18,-1020.02,0.63,1.98,-3.08,-52.95,17.70,14.70,27.4
2026/04/13 15:04:48.86,IMU,-16.11,-20.51,-1011.72,-0.99,0.05,0.41,-54.60,16.05,14.55,26.9
2026/04/13 15:04:48.96,IMU,-30.27,-24.90,-1012.21,0.08,1.09,-1.21,-53.10,16.80,14.85,26.9
2026/04/13 15:04:49.06,IMU,-22.46,-24.90,-1005.37,-1.52,0.01,-2.03,-52.35,16.50,14.25,27.1
2026/04/13 15:04:49.16,IMU,-19.53,-18.55,-1019.53,1.45,0.63,0.23,-52.05,16.05,13.80,27.0
2026/04/13 15:04:49.26,IMU,-20.02,-12.21,-1016.60,0.09,0.62,-1.12,-52.50,16.95,14.70,27.1
2026/04/13 15:04:49.36,IMU,-31.25,-14.16,-1015.14,-0.73,-1.04,-1.31,-52.35,14.55,13.80,27.2
2026/04/13 15:04:49.46,IMU,-27.34,-24.41,-1016.60,-0.36,1.08,-1.66,-52.20,15.90,14.70,27.3
2026/04/13 15:04:49.56,IMU,-7.81,-14.65,-1012.21,-0.66,0.21,-1.53,-53.25,16.20,13.95,26.7
2026/04/13 15:04:49.66,IMU,-10.74,-14.65,-1004.88,-0.56,0.31,-1.98,-54.00,15.45,13.65,26.9
2026/04/13 15:04:49.76,IMU,-39.06,-28.81,-1010.25,-1.24,0.93,-0.02,-54.00,15.90,13.95,27.1
2026/04/13 15:04:49.86,IMU,-15.63,-6.35,-1025.39,-0.50,-0.44,3.60,-53.10,15.75,14.55,27.3
2026/04/13 15:04:49.96,IMU,-19.53,-20.02,-1020.51,-0.79,0.79,-1.63,-52.95,17.70,14.70,27.2
2026/04/13 15:04:50.07,IMU,-10.25,-20.02,-1001.46,-0.27,0.38,1.34,-53.25,16.65,15.45,27.2
2026/04/13 15:04:50.17,IMU,-19.53,-15.14,-1012.21,-1.18,2.08,-2.18,-51.60,16.80,14.25,27.2
2026/04/13 15:04:50.27,IMU,-15.63,-30.76,-1005.37,0.44,0.27,2.60,-52.80,15.30,14.55,27.1
2026/04/13 15:04:50.37,IMU,-26.37,-11.23,-1017.09,0.27,-0.83,-1.03,-52.80,15.75,14.25,27.2
2026/04/13 15:04:50.47,IMU,-16.11,-31.25,-1003.42,2.11,0.51,1.03,-53.10,17.25,14.25,26.8
2026/04/13 15:04:50.57,IMU,-13.18,-17.58,-1020.51,1.72,1.63,-0.28,-51.75,17.40,15.15,27.2
2026/04/13 15:04:50.67,IMU,-36.13,-25.88,-1005.86,0.10,0.54,0.89,-52.80,17.25,14.85,27.2
2026/04/13 15:04:50.77,IMU,-30.27,-30.76,-1004.88,0.34,0.29,-0.56,-52.95,16.65,13.95,27.1
2026/04/13 15:04:50.87,IMU,-23.44,-8.30,-1021.48,0.69,0.00,2.92,-54.00,15.90,15.15,26.9
2026/04/13 15:04:50.97,IMU,-26.37,-23.44,-1021.48,-1.27,1.61,0.32,-52.80,16.80,14.25,27.1
2026/04/13 15:04:51.07,IMU,-19.53,-21.48,-1039.55,-0.03,1.11,-0.16,-53.25,15.45,14.70,27.5
2026/04/13 15:04:51.17,IMU,-21.97,-21.48,-1013.18,-0.80,-0.23,-0.40,-53.10,16.50,14.25,27.1
2026/04/13 15:04:51.27,IMU,-26.86,-28.81,-1034.67,-0.34,0.31,1.08,-52.95,16.20,14.40,27.2
2026/04/13 15:04:51.37,IMU,-30.27,-21.00,-1026.37,0.84,2.59,0.21,-53.25,16.65,14.70,27.1
2026/04/13 15:04:51.47,IMU,-20.51,-20.02,-1030.27,1.01,0.83,0.47,-53.10,16.80,14.25,27.0
2026/04/13 15:04:51.57,IMU,-25.39,-31.74,-1027.34,0.21,0.02,0.74,-52.95,16.65,14.40,27.1
2026/04/13 15:04:51.67,IMU,-18.07,-21.97,-1022.46,1.15,-0.15,0.24,-54.45,16.95,15.45,27.1
2026/04/13 15:04:51.77,IMU,-10.25,-15.14,-1015.63,2.27,-0.24,2.50,-53.25,17.40,13.65,27.2
2026/04/13 15:04:51.87,IMU,-26.37,-18.55,-1010.25,-0.82,0.49,-0.89,-53.10,16.50,14.85,27.3
2026/04/13 15:04:51.97,IMU,-15.63,-23.44,-1030.27,0.15,0.89,-1.80,-52.05,16.50,13.05,27.2
2026/04/13 15:04:52.07,IMU,-26.86,-20.51,-1009.28,0.72,0.18,1.21,-53.10,17.25,13.80,26.9
2026/04/13 15:04:52.17,IMU,-21.00,-23.93,-1024.41,0.16,-0.89,-1.08,-53.10,16.05,14.55,27.1
2026/04/13 15:04:52.27,IMU,-23.93,-11.23,-1015.63,0.92,0.68,-0.36,-53.40,16.50,14.25,27.2
2026/04/13 15:04:52.37,IMU,-25.39,-18.07,-1010.74,-0.10,0.41,-4.56,-52.80,15.75,13.05,27.2
2026/04/13 15:04:52.47,IMU,-1.46,-17.09,-1006.84,-0.56,1.17,1.74,-53.70,16.20,14.40,27.2
2026/04/13 15:04:52.57,IMU,-4.88,-22.46,-1004.39,-1.53,0.31,3.15,-52.95,16.95,13.95,27.3
2026/04/13 15:04:52.67,IMU,-27.83,-21.00,-1017.58,0.25,0.75,0.48,-51.45,16.95,15.75,27.4
2026/04/13 15:04:52.77,IMU,-33.69,-11.72,-1008.79,0.82,0.24,0.02,-51.45,17.70,15.15,27.2
2026/04/13 15:04:52.87,IMU,-17.09,-12.70,-1011.72,0.70,-1.63,2.14,-51.60,19.50,16.35,27.2
2026/04/13 15:04:52.97,IMU,-20.51,-24.41,-1013.18,0.09,1.10,0.59,-51.60,19.05,16.65,26.8
2026/04/13 15:04:53.07,IMU,-17.09,-30.76,-1017.58,0.29,-0.86,3.23,-51.60,18.75,16.35,27.3
2026/04/13 15:04:53.18,IMU,-33.69,-8.79,-1021.97,-0.38,0.57,-1.56,-51.60,19.05,16.65,27.1
2026/04/13 15:04:53.28,IMU,-16.11,-22.46,-1007.32,0.53,1.08,-2.32,-55.50,16.20,20.55,27.2
2026/04/13 15:04:53.38,IMU,-32.23,-26.37,-1009.77,-0.87,-0.36,-0.98,-51.45,18.15,16.95,27.0
2026/04/13 15:04:53.48,IMU,-19.04,-27.83,-1002.44,-1.12,0.06,-0.37,-52.35,18.30,16.65,27.1
2026/04/13 15:04:53.58,IMU,-24.41,-23.93,-1013.67,-0.76,-1.36,2.16,-53.40,17.25,16.05,27.2
2026/04/13 15:04:53.68,IMU,-30.27,-17.09,-1017.58,0.18,0.25,-0.66,-52.80,17.55,15.60,27.1
2026/04/13 15:04:53.78,IMU,-21.48,-21.97,-1010.25,-0.72,1.02,2.58,-54.75,17.40,16.50,27.1
2026/04/13 15:04:53.88,IMU,-26.86,-18.07,-1025.88,-0.41,-0.83,0.91,-52.35,18.30,16.65,26.8
2026/04/13 15:04:53.98,IMU,-18.55,-13.67,-1012.21,0.21,-0.23,-2.04,-54.15,18.75,16.05,27.2
2026/04/13 15:04:54.08,IMU,-22.46,-26.37,-1019.53,0.47,-0.27,3.71,-52.20,16.95,16.95,27.4
2026/04/13 15:04:54.18,IMU,-7.32,-24.41,-1027.34,0.21,0.63,0.75,-53.10,17.25,15.60,27.0
2026/04/13 15:04:54.28,IMU,-25.88,-17.09,-1021.48,0.22,2.69,0.88,-56.55,15.90,21.15,27.0
2026/04/13 15:04:54.38,IMU,-18.07,-24.41,-1014.16,-1.94,0.48,1.98,-52.05,18.00,15.60,27.3
2026/04/13 15:04:54.48,IMU,-34.67,-11.72,-1032.71,1.11,1.66,2.22,-53.25,16.95,16.50,27.2
2026/04/13 15:04:54.58,IMU,-22.95,-17.58,-1014.16,-1.10,-0.60,0.92,-53.25,17.40,16.20,27.0
2026/04/13 15:04:54.68,IMU,-31.74,-16.11,-1016.11,0.59,0.42,1.61,-52.50,15.45,15.75,27.3
2026/04/13 15:04:54.78,IMU,-21.97,-32.71,-1024.41,0.53,1.15,0.47,-53.40,16.80,16.35,27.0
2026/04/13 15:04:54.88,IMU,-20.51,-15.63,-1022.95,-0.53,1.62,-0.20,-53.40,16.05,14.85,27.3
2026/04/13 15:04:54.98,IMU,-37.60,-21.00,-1020.02,-0.45,0.25,0.57,-53.40,16.80,16.35,27.1
2026/04/13 15:04:55.08,IMU,-17.09,-21.48,-1012.70,-0.25,-1.18,2.53,-52.95,15.45,16.95,27.2
2026/04/13 15:04:55.18,IMU,-20.51,-21.97,-1018.55,-0.57,0.27,-1.21,-54.00,16.65,14.70,27.5
2026/04/13 15:04:55.28,IMU,-37.60,-25.39,-1018.07,-1.65,2.52,2.31,-52.50,17.70,14.40,27.3
2026/04/13 15:04:55.38,IMU,-34.18,-14.65,-1011.72,0.40,0.37,-1.92,-52.50,17.40,15.75,26.9
2026/04/13 15:04:55.48,IMU,-32.23,-16.60,-1012.70,0.23,0.58,-1.73,-52.50,16.20,15.75,27.2
2026/04/13 15:04:55.58,IMU,-11.72,-11.72,-1017.58,0.46,-1.83,-1.31,-53.40,16.80,15.60,27.3
2026/04/13 15:04:55.68,IMU,-38.09,-31.25,-1016.11,1.15,0.76,-1.41,-53.25,17.40,16.95,27.1
2026/04/13 15:04:55.78,IMU,-22.46,-20.02,-1021.48,1.45,4.34,-0.40,-52.50,16.95,16.50,27.2
2026/04/13 15:04:55.88,IMU,-18.55,-21.48,-1008.30,-0.81,0.12,-1.24,-52.35,16.05,16.35,27.3
2026/04/13 15:04:55.98,IMU,-21.48,-27.83,-1008.30,-0.44,1.50,-2.11,-53.10,16.50,16.05,27.3
2026/04/13 15:04:56.08,IMU,-22.95,-16.60,-1009.28,0.76,0.06,1.06,-53.40,16.50,14.85,27.2
2026/04/13 15:04:56.18,IMU,-21.48,-8.30,-1010.74,-0.11,1.94,0.62,-53.25,16.65,14.70,27.0
2026/04/13 15:04:56.29,IMU,-34.18,-17.58,-1022.46,-2.93,0.96,-0.87,-52.80,16.80,14.85,27.3
2026/04/13 15:04:56.39,IMU,-30.76,-18.07,-995.61,-0.29,0.76,1.26,-53.25,18.15,15.45,27.1
2026/04/13 15:04:56.49,IMU,-20.02,-19.04,-1009.28,-0.40,1.69,-1.63,-52.50,16.95,15.45,27.3
2026/04/13 15:04:56.59,IMU,-20.02,-20.02,-1014.65,0.62,1.05,0.10,-54.00,16.65,15.45,26.8
2026/04/13 15:04:56.69,IMU,-21.97,-19.53,-1011.23,0.82,0.34,1.52,-52.20,16.20,16.95,27.3
2026/04/13 15:04:56.79,IMU,-20.51,-23.93,-1010.74,0.36,-0.72,-1.19,-53.70,16.95,15.15,27.2
2026/04/13 15:04:56.89,IMU,-14.65,-12.70,-1015.14,1.19,-0.31,-3.88,-52.95,16.65,15.45,27.3
2026/04/13 15:04:56.99,IMU,-17.58,-20.51,-1020.02,-0.31,0.81,0.25,-53.25,17.40,15.15,27.4
2026/04/13 15:04:57.09,IMU,-25.39,-24.90,-1006.84,-0.91,1.49,2.16,-52.50,17.40,15.45,27.5
2026/04/13 15:04:57.19,IMU,-38.57,-19.53,-1026.86,0.34,1.50,-0.09,-51.30,16.80,16.35,27.1
2026/04/13 15:04:57.29,IMU,-19.53,-28.81,-1020.51,-1.62,-0.06,1.21,-52.80,16.80,15.60,27.0
2026/04/13 15:04:57.39,IMU,-14.16,-14.65,-1009.77,-0.15,2.84,1.59,-52.35,17.25,15.75,27.5
2026/04/13 15:04:57.49,IMU,-21.97,-16.11,-1023.93,-1.21,1.21,1.56,-53.10,16.05,15.60,27.1
2026/04/13 15:04:57.59,IMU,-23.93,-14.16,-1021.00,0.65,1.06,-3.11,-52.05,16.05,16.35,27.3
2026/04/13 15:04:57.69,IMU,-34.18,-25.88,-1020.02,1.11,2.05,2.61,-52.05,18.30,16.20,26.9
2026/04/13 15:04:57.79,IMU,-24.90,-19.04,-1012.70,-0.58,1.21,-1.67,-53.70,15.90,14.70,27.3
2026/04/13 15:04:57.89,IMU,-25.39,-18.55,-1002.93,-0.08,-0.10,1.95,-52.20,16.20,15.75,27.2
2026/04/13 15:04:57.99,IMU,-28.81,-22.95,-1020.02,2.02,0.82,0.95,-53.25,18.15,15.15,27.2
2026/04/13 15:04:58.09,IMU,-27.83,-26.37,-1023.93,-0.38,0.31,-1.11,-53.10,18.75,15.30,27.0
2026/04/13 15:04:58.19,IMU,-12.21,-22.46,-1009.77,0.50,1.16,-1.23,-52.80,16.05,14.85,27.2
2026/04/13 15:04:58.29,IMU,-21.97,-17.09,-1007.81,-0.05,0.69,1.09,-52.80,18.30,14.55,27.3
2026/04/13 15:04:58.39,IMU,-25.39,-25.39,-1008.30,-0.85,0.15,0.40,-52.80,16.80,15.30,27.2
2026/04/13 15:04:58.49,IMU,-24.41,-19.53,-1005.86,1.47,-0.79,1.48,-52.20,16.95,15.15,27.2
2026/04/13 15:04:58.59,IMU,-15.14,-27.83,-1001.95,-1.45,-1.02,0.01,-53.70,16.65,14.40,27.1
2026/04/13 15:04:58.69,IMU,-31.25,-27.83,-1007.81,-0.56,0.70,-2.47,-53.25,16.95,18.00,27.1
2026/04/13 15:04:58.79,IMU,-24.90,-28.32,-1022.95,-0.11,0.02,-0.08,-53.10,15.75,14.85,27.0
2026/04/13 15:04:58.89,IMU,-18.55,-27.83,-1020.02,0.75,2.09,1.57,-51.75,15.45,15.75,27.3
2026/04/13 15:04:58.99,IMU,-21.00,-23.44,-1008.30,0.13,-0.39,-0.73,-53.25,17.40,16.20,27.3
2026/04/13 15:04:59.09,IMU,-16.11,-27.34,-1007.81,1.14,-0.52,-0.15,-53.40,16.05,14.85,27.0
2026/04/13 15:04:59.19,IMU,-13.18,-18.55,-1022.46,0.12,0.19,0.80,-52.95,15.45,15.15,27.2
2026/04/13 15:04:59.30,IMU,-16.11,-20.51,-1012.21,0.91,-0.69,0.50,-53.10,16.80,14.85,27.2
2026/04/13 15:04:59.40,IMU,-23.44,-26.37,-1006.35,-0.21,-0.51,-1.57,-52.20,15.90,15.75,27.2
2026/04/13 15:04:59.50,IMU,-34.67,-27.83,-1011.72,0.57,2.35,1.51,-51.75,16.65,17.55,27.0
2026/04/13 15:04:59.60,IMU,-27.83,-16.60,-1022.95,0.79,-0.31,-0.66,-53.10,17.55,13.80,27.2
2026/04/13 15:04:59.70,IMU,-21.00,-25.39,-1015.14,0.06,-0.05,0.49,-52.35,16.05,14.85,27.3
2026/04/13 15:04:59.80,IMU,-14.16,-19.53,-1014.65,-1.51,1.31,0.50,-52.05,16.50,16.35,27.1
2026/04/13 15:04:59.90,IMU,-19.53,-10.74,-1013.67,-0.20,-0.38,1.54,-54.00,17.70,15.75,27.0
2026/04/13 15:05:00.00,IMU,-28.32,-29.30,-1019.53,0.69,-0.77,0.65,-52.35,16.80,15.60,27.1
2026/04/13 15:05:00.10,IMU,-32.23,-31.25,-1017.09,0.71,-1.31,-1.16,-52.35,17.25,16.35,27.3
2026/04/13 15:05:00.20,IMU,-20.02,-15.14,-1022.95,-0.92,1.26,-0.31,-53.40,18.00,16.35,27.1
2026/04/13 15:05:00.30,IMU,-26.37,-24.90,-1029.79,0.53,-0.30,1.44,-54.00,18.15,16.20,27.3
2026/04/13 15:05:00.40,IMU,-20.02,-21.48,-1014.16,-0.65,1.50,-1.52,-54.45,14.70,18.00,27.5
2026/04/13 15:05:00.50,IMU,-31.74,-8.30,-1005.86,1.88,0.75,-2.08,-52.50,14.70,15.45,27.3
2026/04/13 15:05:00.60,IMU,-31.74,-17.58,-1032.23,1.02,-0.40,1.85,-52.35,16.50,16.35,27.3
2026/04/13 15:05:00.70,IMU,-26.37,-11.72,-1015.14,0.05,0.97,0.09,-53.10,16.05,16.05,27.3
2026/04/13 15:05:00.80,IMU,-31.25,-27.83,-1008.79,-2.53,2.47,0.24,-52.20,16.95,14.70,27.4
2026/04/13 15:05:00.90,IMU,-11.23,-25.88,-1020.02,2.08,-0.36,-0.42,-52.80,16.05,16.05,27.3
2026/04/13 15:05:01.00,IMU,-16.60,-25.39,-1015.14,-0.82,0.60,-1.12,-51.75,16.65,16.50,27.2
2026/04/13 15:05:01.10,IMU,-10.25,-31.25,-1009.28,0.46,0.09,-0.82,-52.20,17.70,16.20,27.0
2026/04/13 15:05:01.20,IMU,-22.46,-21.48,-1010.25,-1.34,2.36,-0.69,-52.95,16.65,16.50,27.2
2026/04/13 15:05:01.30,IMU,-30.76,-19.04,-1012.70,-0.11,1.73,-0.60,-52.05,18.00,15.30,27.0
2026/04/13 15:05:01.40,IMU,-14.16,-15.63,-1025.39,-0.64,0.58,2.08,-56.55,15.45,19.35,27.5
2026/04/13 15:05:01.50,IMU,-24.90,-0.98,-1009.28,1.05,-0.06,1.10,-53.25,16.20,16.50,27.2
2026/04/13 15:05:01.60,IMU,-24.90,-36.62,-1018.55,0.39,-1.48,2.20,-53.25,16.20,15.15,27.3
2026/04/13 15:05:01.70,IMU,-26.37,-17.58,-1006.84,1.15,1.24,-2.08,-53.25,16.65,15.45,27.3
2026/04/13 15:05:01.80,IMU,-24.41,-23.93,-1001.46,-0.34,1.69,0.27,-53.25,16.20,15.75,27.2
2026/04/13 15:05:01.90,IMU,-27.34,-23.93,-1019.04,0.10,0.87,-0.73,-51.60,16.50,15.60,27.4
2026/04/13 15:05:02.00,IMU,-25.88,-8.79,-1008.30,-0.15,2.29,1.59,-52.95,16.20,15.75,27.2
2026/04/13 15:05:02.10,IMU,-28.32,-8.30,-1017.58,-0.24,0.60,1.79,-52.05,16.50,16.65,27.3
2026/04/13 15:05:02.20,IMU,-22.46,-20.51,-1018.07,-1.60,0.06,0.13,-52.50,15.90,16.20,26.8
2026/04/13 15:05:02.30,IMU,-21.00,-11.23,-1023.93,-1.21,-1.29,2.92,-52.35,16.50,16.35,27.2
2026/04/13 15:05:02.40,IMU,-27.83,-10.74,-1020.02,0.69,-0.29,1.16,-55.05,13.65,19.35,27.2
2026/04/13 15:05:02.51,IMU,-26.37,-20.51,-1003.42,-0.53,0.63,-0.46,-53.10,17.25,16.35,27.3
2026/04/13 15:05:02.61,IMU,-22.95,-19.04,-1021.00,-0.96,1.96,-0.51,-53.40,16.80,15.60,27.5
2026/04/13 15:05:02.71,IMU,-13.67,-28.81,-1032.71,0.25,-1.49,1.31,-52.95,16.65,15.45,27.2
2026/04/13 15:05:02.81,IMU,-17.58,-24.41,-1019.53,-1.24,0.45,0.24,-52.80,17.25,14.85,27.3
2026/04/13 15:05:02.91,IMU,-23.44,-9.28,-1013.18,-0.90,0.03,0.88,-52.20,18.60,15.45,27.3
2026/04/13 15:05:03.01,IMU,-21.97,-11.23,-1020.02,1.54,0.04,1.39,-52.20,16.95,16.50,27.3
2026/04/13 15:05:03.11,IMU,-20.02,-21.48,-1026.37,0.15,0.32,-0.07,-53.10,17.55,15.60,27.2
2026/04/13 15:05:03.21,IMU,-22.95,-8.79,-1015.63,-0.59,0.78,2.63,-53.70,16.65,15.45,27.2
2026/04/13 15:05:03.31,IMU,-41.02,-20.02,-1023.44,0.44,1.67,-1.56,-53.85,16.50,14.85,27.3
2026/04/13 15:05:03.42,IMU,-29.30,-17.09,-1029.30,1.63,-0.05,1.38,-54.00,15.15,19.35,27.5
2026/04/13 15:05:03.52,IMU,-23.44,-20.02,-1015.14,-0.03,0.19,-3.60,-53.25,15.45,15.15,27.4
2026/04/13 15:05:03.62,IMU,-21.48,-19.04,-1000.00,0.79,1.30,2.11,-52.80,17.25,15.60,27.1
2026/04/13 15:05:03.72,IMU,-19.53,-22.46,-1011.72,-0.50,-0.92,4.24,-54.00,16.65,15.15,27.3
2026/04/13 15:05:03.82,IMU,-21.97,-19.53,-1018.07,0.15,-0.81,0.05,-52.80,17.25,17.10,27.2
2026/04/13 15:05:03.92,IMU,-20.51,-19.53,-999.51,1.63,2.10,0.48,-53.40,18.00,15.30,27.3
2026/04/13 15:05:04.02,IMU,-27.34,-15.63,-1009.77,-0.15,0.69,-0.58,-53.10,16.80,15.60,27.3
2026/04/13 15:05:04.12,IMU,-31.25,-20.51,-1008.79,-2.42,-0.79,2.66,-52.50,16.65,14.40,27.3
2026/04/13 15:05:04.22,IMU,-21.97,-23.93,-1008.79,1.16,0.69,-1.26,-53.25,17.40,15.75,27.3
2026/04/13 15:05:04.32,IMU,-15.14,-19.04,-1012.70,0.65,-0.79,0.27,-53.70,17.40,16.20,27.3
2026/04/13 15:05:04.42,IMU,-28.32,-13.18,-1013.67,-0.11,1.49,-0.29,-52.05,18.75,16.65,27.5
2026/04/13 15:05:04.52,IMU,-41.99,-15.63,-1010.74,-0.29,1.64,-1.94,-53.40,17.55,15.30,27.3
2026/04/13 15:05:04.62,IMU,-23.93,-29.79,-1033.20,-0.01,-1.93,-2.46,-52.05,16.80,14.85,27.3
2026/04/13 15:05:04.72,IMU,-34.18,-1.95,-1026.37,-0.02,-0.49,-1.84,-53.25,17.40,16.20,27.1
2026/04/13 15:05:04.82,IMU,-28.32,-25.39,-1015.63,0.78,-1.14,-0.60,-52.05,17.55,17.10,27.3
2026/04/13 15:05:04.92,IMU,-35.16,-22.95,-1021.97,0.30,-0.70,-0.73,-52.35,16.05,15.30,27.3
2026/04/13 15:05:05.02,IMU,-31.74,-11.23,-1029.79,1.98,-0.54,0.23,-52.95,17.40,14.70,27.3
2026/04/13 15:05:05.12,IMU,-29.79,-11.23,-1019.53,-0.20,-2.48,-0.07,-51.30,17.25,16.65,27.3
2026/04/13 15:05:05.22,IMU,-39.06,-18.07,-1014.65,-0.64,-1.54,-1.56,-52.20,16.65,16.20,27.4
2026/04/13 15:05:05.32,IMU,-17.58,-29.30,-1030.27,1.30,0.02,-0.15,-53.10,17.25,17.40,27.5
2026/04/13 15:05:05.42,IMU,-22.95,-19.04,-1028.32,-0.56,-0.71,1.80,-53.40,16.80,16.65,27.2
2026/04/13 15:05:05.52,IMU,-31.25,-15.14,-1018.55,0.50,-0.60,-1.42,-52.80,17.55,16.35,27.3
2026/04/13 15:05:05.62,IMU,-13.18,-19.53,-1029.79,-0.29,-1.13,0.35,-53.40,17.55,16.35,27.1
2026/04/13 15:05:05.72,IMU,-27.34,-11.23,-1017.09,0.31,2.21,-0.92,-53.10,15.30,16.65,27.3
2026/04/13 15:05:05.83,IMU,-21.97,-26.86,-1015.14,-0.11,-1.29,-1.69,-52.80,17.25,17.40,27.3
2026/04/13 15:05:05.93,IMU,-31.74,-21.97,-1017.58,-2.10,2.63,-2.46,-51.45,16.95,16.50,27.3
2026/04/13 15:05:06.03,IMU,-19.53,-17.09,-1009.77,0.79,0.17,0.96,-54.15,17.55,16.65,27.3
2026/04/13 15:05:06.13,IMU,-16.11,-13.67,-1005.86,1.45,0.79,-1.31,-54.00,18.60,16.20,27.3
2026/04/13 15:05:06.23,IMU,-18.55,-16.60,-1008.79,-0.05,1.75,1.21,-51.60,17.55,16.35,27.2
2026/04/13 15:05:06.33,IMU,-21.48,-9.28,-1002.93,-1.12,-1.21,-2.02,-52.95,17.70,17.55,27.0
2026/04/13 15:05:06.43,IMU,-28.81,-21.97,-1012.21,2.26,0.27,-2.25,-53.85,19.05,17.85,27.5
2026/04/13 15:05:06.53,IMU,-15.63,-17.58,-1010.25,-0.13,0.31,-2.38,-53.40,17.25,19.20,27.3
2026/04/13 15:05:06.63,IMU,-15.63,-15.63,-996.58,-0.69,2.79,0.01,-54.00,17.40,16.95,27.5
2026/04/13 15:05:06.73,IMU,-29.79,-14.65,-1009.28,-1.54,0.36,-2.65,-53.25,17.70,17.25,26.8
2026/04/13 15:05:06.83,IMU,-14.16,-21.97,-1010.74,1.18,-0.85,0.56,-53.25,18.60,17.25,27.6
2026/04/13 15:05:06.93,IMU,-27.34,-24.90,-1013.18,0.93,0.08,-1.60,-53.70,18.15,18.30,27.3
2026/04/13 15:05:07.03,IMU,-21.97,-25.39,-1020.02,-0.57,1.93,1.80,-53.40,16.05,17.85,27.0
2026/04/13 15:05:07.13,IMU,-22.46,-29.30,-1007.32,0.52,1.62,-1.95,-53.10,17.55,17.40,27.3
2026/04/13 15:05:07.23,IMU,-20.51,-29.79,-1001.46,2.85,-1.50,2.72,-54.00,19.35,18.30,27.1
2026/04/13 15:05:07.33,IMU,-24.41,-16.11,-1017.09,0.72,1.90,-2.10,-53.25,17.40,16.95,27.3
2026/04/13 15:05:07.43,IMU,-28.32,-35.64,-1012.21,0.29,-1.44,0.58,-53.10,19.50,18.45,27.1
2026/04/13 15:05:07.53,IMU,-32.71,-15.63,-1004.88,-0.57,-0.32,0.11,-52.80,19.05,17.85,27.3
2026/04/13 15:05:07.63,IMU,-13.67,-12.21,-1000.49,-0.37,0.08,1.47,-52.80,17.55,18.45,27.2
2026/04/13 15:05:07.73,IMU,-17.09,-31.74,-1015.63,0.34,-1.34,0.86,-52.05,16.80,18.15,27.5
2026/04/13 15:05:07.83,IMU,-20.51,-21.00,-1016.60,-1.29,1.40,-1.32,-53.10,17.55,18.45,27.1
2026/04/13 15:05:07.93,IMU,-29.30,-2.44,-1007.81,-0.63,-0.67,-0.59,-53.25,16.20,18.00,27.2
2026/04/13 15:05:08.03,IMU,-25.39,-21.00,-1012.70,0.07,-2.84,0.72,-54.15,16.80,17.40,27.3
2026/04/13 15:05:08.13,IMU,-27.83,-25.39,-1028.32,-0.22,-0.74,-0.42,-51.60,17.25,17.40,27.5
2026/04/13 15:05:08.23,IMU,-20.02,-8.30,-1015.14,0.62,1.74,-1.34,-51.75,16.65,18.30,27.3
2026/04/13 15:05:08.33,IMU,-17.09,-17.09,-1013.67,0.95,-0.42,-2.05,-52.50,17.40,18.75,27.1
2026/04/13 15:05:08.43,IMU,-14.16,-21.97,-1025.88,-1.44,-0.63,3.15,-54.00,16.65,17.55,27.5
2026/04/13 15:05:08.53,IMU,-20.02,-24.90,-1012.21,-1.78,1.80,-0.48,-53.25,17.70,17.25,27.5
2026/04/13 15:05:08.63,IMU,-30.76,-30.76,-1017.58,-0.18,0.13,-1.40,-53.10,17.25,16.65,27.5
2026/04/13 15:05:08.73,IMU,-6.35,-19.53,-1016.60,-1.61,1.50,0.66,-52.05,16.80,17.40,27.3
2026/04/13 15:05:08.84,IMU,-22.46,-31.25,-1015.63,1.08,0.14,1.48,-53.40,17.55,16.35,27.5
2026/04/13 15:05:08.94,IMU,-3.91,-11.72,-1014.16,1.77,0.21,-0.77,-52.95,17.70,17.55,27.3
2026/04/13 15:05:09.04,IMU,-30.27,-21.00,-1016.60,-0.18,-0.39,0.33,-52.35,16.80,16.05,27.1
2026/04/13 15:05:09.14,IMU,-28.32,-20.02,-1017.58,-0.44,1.73,0.61,-53.40,18.00,16.05,27.5
2026/04/13 15:05:09.24,IMU,-21.00,-28.32,-1025.88,1.50,0.71,-1.15,-52.05,18.75,16.65,27.3
2026/04/13 15:05:09.34,IMU,-22.46,-21.00,-1011.72,0.35,1.32,3.83,-52.50,16.65,15.45,27.2
2026/04/13 15:05:09.44,IMU,-18.55,-15.14,-1001.46,1.15,0.95,-1.73,-54.00,17.40,15.45,27.3
2026/04/13 15:05:09.54,IMU,-14.65,-18.07,-1009.77,-0.17,1.40,0.34,-53.10,17.25,15.30,27.6
2026/04/13 15:05:09.64,IMU,-18.07,-21.97,-991.21,-0.07,-1.18,2.37,-53.10,16.80,14.55,27.1
2026/04/13 15:05:09.74,IMU,-29.79,-10.74,-991.70,0.02,1.87,0.15,-51.60,17.25,14.85,27.3
2026/04/13 15:05:09.84,IMU,-25.39,-16.60,-1003.91,1.47,0.57,1.10,-52.20,18.60,14.40,27.2
2026/04/13 15:05:09.94,IMU,-21.97,-24.90,-1018.07,0.50,2.20,3.95,-52.35,16.50,16.05,27.3
2026/04/13 15:05:10.04,IMU,-27.83,-15.63,-997.07,-0.74,0.46,0.55,-53.85,17.25,15.60,27.1
2026/04/13 15:05:10.14,IMU,-23.93,-26.37,-1011.23,0.21,1.04,0.25,-52.95,16.95,16.20,27.3
2026/04/13 15:05:10.24,IMU,-30.27,-14.65,-1035.64,1.18,0.53,-0.78,-52.35,17.25,14.55,27.5
2026/04/13 15:05:10.34,IMU,-11.23,-21.48,-1007.32,0.24,-0.60,1.70,-52.35,18.30,17.40,27.0
2026/04/13 15:05:10.44,IMU,-27.83,-28.32,-1015.63,-2.73,2.94,-1.44,-53.10,17.55,16.05,27.2
2026/04/13 15:05:10.54,IMU,-18.07,-23.44,-1008.79,-0.56,0.31,-0.24,-52.35,16.80,16.05,27.3
2026/04/13 15:05:10.64,IMU,-26.37,-9.28,-1014.65,-0.18,-1.01,2.18,-54.15,16.05,16.05,27.3
2026/04/13 15:05:10.74,IMU,-34.18,-20.51,-1005.86,0.96,1.02,4.47,-53.10,18.00,16.05,27.3
2026/04/13 15:05:10.84,IMU,-14.65,-31.74,-1018.07,-0.07,0.23,2.67,-52.05,18.00,16.65,27.5
2026/04/13 15:05:10.94,IMU,-21.97,-8.79,-1022.46,-0.76,0.57,-0.60,-52.50,17.70,16.20,27.5
2026/04/13 15:05:11.04,IMU,-37.60,-21.48,-1011.72,0.42,-0.31,3.18,-53.85,16.05,17.10,27.4
2026/04/13 15:05:11.14,IMU,-30.27,-17.09,-1015.63,2.30,0.47,1.24,-53.25,16.65,15.75,27.4
2026/04/13 15:05:11.24,IMU,-27.34,-18.55,-1017.09,-0.88,2.66,-2.19,-52.80,17.55,16.65,27.3
2026/04/13 15:05:11.34,IMU,-24.41,-21.48,-1030.76,2.05,1.20,-1.60,-53.25,17.70,16.20,27.7
2026/04/13 15:05:11.44,IMU,-29.30,-18.55,-1022.46,0.23,0.69,-2.43,-53.25,17.70,17.25,27.1
2026/04/13 15:05:11.54,IMU,-22.95,-13.67,-1008.79,-0.76,1.66,-1.40,-57.00,15.45,21.15,27.4
2026/04/13 15:05:11.64,IMU,-19.04,-24.90,-1024.90,0.16,1.54,0.16,-52.50,16.95,16.50,27.4
2026/04/13 15:05:11.74,IMU,-26.86,-18.07,-1009.77,-1.77,0.59,-1.42,-53.10,18.00,16.65,27.5
2026/04/13 15:05:11.84,IMU,-21.48,-10.74,-1006.35,0.14,0.60,0.51,-52.35,16.50,17.10,27.5
2026/04/13 15:05:11.94,IMU,-18.55,-8.79,-1014.65,-0.68,1.61,-1.40,-54.00,17.40,15.75,27.3
2026/04/13 15:05:12.05,IMU,-25.39,-19.04,-1020.02,0.08,-0.85,-0.33,-52.50,18.15,17.55,27.3
2026/04/13 15:05:12.15,IMU,-14.16,-14.16,-1012.70,-0.39,0.34,-1.19,-53.85,17.55,18.15,27.5
2026/04/13 15:05:12.25,IMU,-15.63,-25.88,-1005.37,-1.14,2.11,1.66,-53.70,17.40,16.95,27.4
2026/04/13 15:05:12.35,IMU,-24.41,-18.07,-1012.21,0.63,1.06,-0.44,-54.15,17.25,16.35,27.5
2026/04/13 15:05:12.45,IMU,-20.51,-20.02,-1021.97,-1.15,1.80,-1.34,-53.10,18.00,16.65,27.5
2026/04/13 15:05:12.55,IMU,-10.25,-21.97,-1020.02,0.88,2.21,1.89,-57.00,15.15,20.85,27.6
2026/04/13 15:05:12.65,IMU,-24.41,-26.37,-1017.58,-1.81,0.54,0.98,-52.35,18.30,16.65,27.0
2026/04/13 15:05:12.75,IMU,-17.09,-26.37,-1007.32,-0.26,-0.87,-1.16,-52.20,17.40,16.95,27.3
2026/04/13 15:05:12.85,IMU,-21.00,-7.32,-1004.39,-1.16,2.11,1.13,-54.15,16.80,16.65,27.1
2026/04/13 15:05:12.95,IMU,-20.51,-15.14,-1018.07,-2.20,0.96,-1.38,-53.40,17.25,15.30,27.0
2026/04/13 15:05:13.05,IMU,-7.81,-19.04,-1027.83,1.20,0.51,-2.37,-53.85,16.05,16.05,27.3
2026/04/13 15:05:13.15,IMU,-29.30,-18.07,-1008.79,-0.57,0.28,-0.25,-53.10,17.25,16.65,27.2
2026/04/13 15:05:13.25,IMU,-11.72,-12.21,-1011.72,0.12,1.21,0.47,-52.80,17.25,16.65,27.4
2026/04/13 15:05:13.35,IMU,-33.69,-10.74,-1021.48,0.47,-1.21,2.04,-53.70,17.70,16.50,27.2
2026/04/13 15:05:13.46,IMU,-23.44,-21.48,-1015.14,-1.98,1.09,0.02,-53.10,16.80,17.10,27.3
2026/04/13 15:05:13.56,IMU,-22.46,-18.55,-1002.44,0.77,0.95,0.53,-51.60,17.25,15.30,27.5
2026/04/13 15:05:13.66,IMU,-20.51,-25.88,-1022.46,0.56,-0.69,1.13,-53.70,17.40,17.25,27.5
2026/04/13 15:05:13.76,IMU,-13.18,-22.95,-1006.84,-0.36,0.82,-1.16,-52.95,17.70,18.75,27.1
2026/04/13 15:05:13.86,IMU,-39.06,-12.70,-1009.28,0.83,0.90,-1.66,-53.40,17.25,16.65,27.5
2026/04/13 15:05:13.96,IMU,-24.41,-18.07,-1003.42,-0.01,0.58,0.40,-53.10,17.25,16.35,27.3
2026/04/13 15:05:14.06,IMU,-27.83,-28.81,-1007.81,0.22,2.77,0.62,-54.00,16.95,16.95,27.0
2026/04/13 15:05:14.16,IMU,-23.93,-17.58,-1011.72,-0.73,-0.74,1.48,-52.95,17.40,15.45,27.5
2026/04/13 15:05:14.26,IMU,-21.97,-13.67,-1020.02,-0.58,3.74,0.34,-53.10,16.50,15.60,27.4
2026/04/13 15:05:14.36,IMU,-21.00,-9.28,-1006.35,-0.18,1.68,-0.70,-52.05,15.30,17.10,27.5
2026/04/13 15:05:14.46,IMU,-15.14,-25.88,-1012.70,0.52,-0.20,0.51,-52.05,16.05,16.05,27.5
2026/04/13 15:05:14.56,IMU,-29.79,-23.44,-1014.16,-0.37,0.78,-0.98,-52.80,17.25,16.65,27.3
2026/04/13 15:05:14.66,IMU,-21.00,-14.65,-1006.35,-1.85,0.71,1.77,-52.80,17.25,17.40,27.1
2026/04/13 15:05:14.76,IMU,-20.51,-20.02,-1021.00,-0.97,-0.15,1.89,-52.50,17.70,16.95,27.6
2026/04/13 15:05:14.86,IMU,-16.60,-26.86,-1002.93,0.34,0.57,-2.23,-53.70,16.95,16.50,27.3
2026/04/13 15:05:14.96,IMU,-27.34,-23.44,-1011.23,-0.49,-0.61,0.69,-52.35,16.50,17.40,27.3
2026/04/13 15:05:15.06,IMU,-29.30,-27.83,-1031.25,1.57,1.24,0.48,-52.35,17.55,16.35,27.3
2026/04/13 15:05:15.16,IMU,-38.09,-17.58,-1020.02,-0.11,0.62,1.21,-51.45,16.20,17.55,27.3
2026/04/13 15:05:15.26,IMU,-28.32,-23.44,-1006.84,1.34,2.31,-1.18,-53.25,16.95,16.50,27.5
2026/04/13 15:05:15.36,IMU,-29.79,-19.53,-1010.25,0.11,-1.69,0.69,-53.70,16.95,15.45,27.5
2026/04/13 15:05:15.46,IMU,-27.83,-23.93,-1019.53,1.01,1.76,1.40,-52.05,17.25,16.65,27.5
2026/04/13 15:05:15.56,IMU,-31.74,-26.37,-1019.53,1.09,1.89,3.31,-54.00,15.90,17.55,27.1
2026/04/13 15:05:15.66,IMU,-21.00,-24.41,-995.12,0.76,1.40,-1.43,-52.80,18.30,17.40,27.5
2026/04/13 15:05:15.76,IMU,-28.32,-17.09,-1015.63,0.66,-0.07,0.72,-50.85,17.25,16.65,27.1
2026/04/13 15:05:15.86,IMU,-26.86,-14.65,-1023.44,-0.30,1.66,-0.01,-52.50,17.40,16.95,27.5
2026/04/13 15:05:15.96,IMU,-16.60,-20.02,-1006.84,-0.54,-2.94,0.13,-52.05,17.55,17.10,27.3
2026/04/13 15:05:16.06,IMU,-14.16,-23.93,-1000.98,0.29,1.21,-0.24,-52.80,17.25,16.65,27.6
2026/04/13 15:05:16.16,IMU,-21.48,-13.67,-1014.16,-0.32,-0.32,0.40,-51.45,17.40,17.55,27.3
2026/04/13 15:05:16.26,IMU,-26.37,-23.93,-1019.53,-0.30,-0.04,-1.03,-52.20,18.15,18.00,27.6
2026/04/13 15:05:16.36,IMU,-20.51,-23.93,-1011.72,-1.38,-0.09,-2.72,-51.45,17.40,18.30,27.3
2026/04/13 15:05:16.46,IMU,-16.11,-18.55,-1015.63,-0.02,1.00,-1.05,-52.35,17.55,17.40,27.1
2026/04/13 15:05:16.57,IMU,-29.30,-23.93,-1016.11,-0.71,1.31,-0.31,-52.95,17.40,17.25,27.3
2026/04/13 15:05:16.67,IMU,-16.11,-8.79,-1005.37,1.15,1.61,-0.54,-52.80,18.30,18.15,27.5
2026/04/13 15:05:16.77,IMU,-26.37,-26.37,-1008.30,0.15,1.10,-0.97,-52.35,19.50,17.85,27.3
2026/04/13 15:05:16.87,IMU,-16.60,-28.32,-1004.39,0.28,2.93,-1.10,-53.85,18.30,17.10,27.3
2026/04/13 15:05:16.97,IMU,-25.88,-19.53,-1020.51,1.69,1.12,-0.49,-52.20,16.65,16.95,27.4
2026/04/13 15:05:17.07,IMU,-21.97,-22.46,-1022.95,-0.51,-0.16,-2.57,-52.35,18.00,17.10,27.5
2026/04/13 15:05:17.17,IMU,-32.23,-19.53,-1005.37,0.21,-0.81,-1.23,-52.80,18.30,16.65,27.5
2026/04/13 15:05:17.27,IMU,-12.70,-17.09,-1009.77,-0.66,-0.73,1.35,-51.30,17.25,16.35,27.6
2026/04/13 15:05:17.37,IMU,-19.04,-31.25,-1018.55,0.70,-2.23,1.01,-51.60,16.80,16.65,27.8
2026/04/13 15:05:17.47,IMU,-27.83,-12.21,-1022.46,-0.54,-0.57,-0.58,-51.75,16.65,16.20,27.5
2026/04/13 15:05:17.57,IMU,-18.55,-14.16,-1019.53,1.87,0.44,-0.95,-52.80,16.50,16.65,27.3
2026/04/13 15:05:17.67,IMU,-35.64,-28.81,-1004.88,1.30,-0.04,0.89,-51.00,16.95,16.20,27.5
2026/04/13 15:05:17.77,IMU,-19.04,-19.53,-1022.95,0.07,2.25,1.78,-50.10,17.55,17.40,27.3
2026/04/13 15:05:17.87,IMU,-34.67,-4.88,-1015.14,-0.11,0.98,-1.15,-52.50,18.15,18.00,27.5
2026/04/13 15:05:17.97,IMU,-29.30,-17.58,-1018.07,-0.65,-0.59,-0.15,-52.05,17.55,17.10,27.3
2026/04/13 15:05:18.07,IMU,-18.07,-9.28,-1012.70,0.33,0.71,1.03,-52.20,16.95,17.55,27.5
2026/04/13 15:05:18.17,IMU,-16.11,-26.86,-1016.11,-0.94,0.31,4.25,-51.75,17.70,19.35,27.6
2026/04/13 15:05:18.27,IMU,-31.74,-25.88,-1012.21,-1.36,-0.15,-1.63,-54.00,17.70,18.30,27.2
2026/04/13 15:05:18.37,IMU,-20.51,-15.14,-1007.32,0.30,0.89,1.63,-53.70,16.20,17.25,27.5
2026/04/13 15:05:18.47,IMU,-25.39,-32.23,-1012.70,0.34,-1.30,0.38,-52.20,17.70,17.25,27.2
2026/04/13 15:05:18.57,IMU,-19.04,-29.79,-1016.60,-1.92,2.45,0.55,-52.20,17.70,17.55,27.3
2026/04/13 15:05:18.67,IMU,-25.39,-23.44,-1006.35,-1.71,0.27,-3.89,-52.80,16.50,18.15,27.5
2026/04/13 15:05:18.77,IMU,-23.44,-6.84,-1005.37,1.26,0.12,-0.34,-52.50,18.15,16.95,27.6
2026/04/13 15:05:18.87,IMU,-19.04,-6.35,-1010.74,0.18,0.40,0.53,-53.25,17.40,17.25,27.2
2026/04/13 15:05:18.97,IMU,-11.72,-23.93,-1023.93,-0.75,-1.03,-0.39,-53.70,18.90,16.50,27.3
2026/04/13 15:05:19.07,IMU,-15.14,-27.34,-1011.23,-1.21,1.36,-1.66,-52.35,16.05,16.65,27.3
2026/04/13 15:05:19.17,IMU,-32.71,-10.74,-1008.79,-0.89,-0.09,0.87,-52.05,16.05,16.65,27.2
2026/04/13 15:05:19.27,IMU,-17.09,-17.58,-1017.09,-0.27,1.12,2.23,-52.80,16.05,17.40,27.6
2026/04/13 15:05:19.37,IMU,-25.88,-15.14,-1000.00,-1.68,0.90,2.60,-52.35,17.55,17.85,27.3
2026/04/13 15:05:19.47,IMU,-17.58,-18.55,-1020.02,1.28,-0.02,1.14,-52.35,17.25,16.35,27.5
2026/04/13 15:05:19.57,IMU,-17.58,-7.81,-995.12,2.15,0.08,4.25,-53.70,16.65,16.95,27.3
2026/04/13 15:05:19.68,IMU,-29.30,-14.65,-1015.63,0.60,0.02,5.98,-55.50,16.65,20.55,27.2
2026/04/13 15:05:19.78,IMU,-18.55,-12.21,-1012.21,-1.80,0.42,-1.13,-53.40,17.25,16.35,27.3
2026/04/13 15:05:19.88,IMU,-26.86,-21.48,-1021.00,0.98,-1.96,1.25,-52.95,18.60,16.95,27.5
2026/04/13 15:05:19.98,IMU,-15.63,-18.07,-1017.09,-0.97,-2.78,3.86,-53.40,15.75,16.35,27.5
2026/04/13 15:05:20.08,IMU,-14.65,-10.25,-1008.30,-0.10,0.69,-1.90,-52.50,17.40,16.95,27.6
2026/04/13 15:05:20.18,IMU,-21.48,-21.97,-1021.97,2.11,-2.63,0.66,-53.40,17.55,17.85,27.3
2026/04/13 15:05:20.28,IMU,-16.11,-18.55,-1008.30,-1.59,-1.69,-1.17,-53.85,16.50,16.05,27.5
2026/04/13 15:05:20.38,IMU,-16.11,-21.97,-1004.88,-0.36,0.70,0.22,-53.85,16.80,15.30,27.6
2026/04/13 15:05:20.48,IMU,-18.07,-10.25,-1024.41,-0.18,1.02,1.89,-52.95,18.15,16.50,27.2
2026/04/13 15:05:20.58,IMU,-20.02,-12.70,-1012.70,-0.75,-1.15,2.05,-52.20,17.40,16.95,27.3
2026/04/13 15:05:20.68,IMU,-16.11,-14.65,-1024.41,-0.01,2.75,0.15,-54.75,13.65,20.10,27.6
2026/04/13 15:05:20.78,IMU,-4.88,-10.74,-1023.93,0.57,1.49,-0.24,-53.85,15.30,16.35,27.2
2026/04/13 15:05:20.88,IMU,-19.53,-24.41,-1020.51,-0.72,0.67,1.35,-52.35,16.80,15.60,27.0
2026/04/13 15:05:20.98,IMU,-22.46,-26.37,-1020.02,0.31,-0.95,-0.44,-53.70,16.95,14.40,27.5
2026/04/13 15:05:21.08,IMU,-14.65,-21.48,-1002.44,-0.19,-0.09,-0.16,-53.10,16.50,15.30,27.3
2026/04/13 15:05:21.18,IMU,-21.48,-12.70,-1023.93,0.80,-1.56,0.44,-52.80,15.75,17.10,27.5
2026/04/13 15:05:21.28,IMU,-34.18,-15.14,-1034.67,-0.98,1.34,-1.11,-52.20,18.15,14.70,27.1
2026/04/13 15:05:21.38,IMU,-22.95,-17.58,-1009.77,1.35,0.98,0.53,-53.70,17.70,15.45,27.5
2026/04/13 15:05:21.48,IMU,-38.09,-21.97,-1018.07,0.18,-0.20,0.10,-53.10,17.25,15.60,27.5
2026/04/13 15:05:21.58,IMU,-23.44,-10.25,-1011.72,-1.45,2.02,3.52,-52.80,16.50,15.60,27.3
2026/04/13 15:05:21.69,IMU,-25.88,-22.95,-1002.93,0.35,2.35,-0.85,-55.80,13.65,20.55,27.3
2026/04/13 15:05:21.79,IMU,-23.44,-13.18,-1017.09,-1.59,-1.66,-1.51,-53.40,17.25,15.60,27.5
2026/04/13 15:05:21.89,IMU,-23.44,-19.04,-1007.32,0.34,-0.27,0.05,-52.35,15.75,16.05,27.3
2026/04/13 15:05:21.99,IMU,-34.18,-20.02,-1010.74,-0.09,1.18,1.63,-52.50,16.20,15.75,27.5
2026/04/13 15:05:22.09,IMU,-19.53,-19.04,-1004.39,0.64,0.06,0.06,-52.95,15.90,16.50,27.2
2026/04/13 15:05:22.19,IMU,-26.37,-15.14,-1022.46,1.84,1.84,1.99,-53.85,17.25,15.30,27.5
2026/04/13 15:05:22.29,IMU,-22.95,-16.11,-1025.88,0.82,2.01,-0.90,-53.40,18.30,14.25,27.3
2026/04/13 15:05:22.39,IMU,-15.63,-20.51,-1007.32,0.00,1.37,2.19,-52.95,16.65,16.20,27.3
2026/04/13 15:05:22.49,IMU,-25.39,-20.02,-1003.42,0.37,-2.08,1.22,-53.25,15.90,16.95,27.5
2026/04/13 15:05:22.59,IMU,-24.41,-17.58,-1019.53,0.40,-0.77,1.22,-52.35,16.80,16.35,27.5
2026/04/13 15:05:22.69,IMU,-24.41,-26.37,-1002.93,2.08,-1.47,0.31,-53.40,16.50,15.30,27.5
2026/04/13 15:05:22.79,IMU,-21.48,-19.04,-1022.46,0.59,0.50,1.58,-53.10,17.55,16.05,27.5
2026/04/13 15:05:22.89,IMU,-21.00,-21.48,-1014.16,0.89,1.21,4.42,-53.70,17.70,16.20,27.1
2026/04/13 15:05:22.99,IMU,-20.02,-25.88,-1025.88,-0.10,-1.82,0.82,-52.95,15.15,15.45,27.6
2026/04/13 15:05:23.09,IMU,-25.88,-26.37,-1013.18,-2.20,1.29,3.30,-53.40,16.50,17.40,27.6
2026/04/13 15:05:23.19,IMU,-22.95,-13.67,-1018.55,-0.39,0.21,4.50,-52.95,17.40,16.95,27.5
2026/04/13 15:05:23.30,IMU,-25.88,-19.04,-1023.93,-0.71,0.71,-2.20,-52.80,17.55,16.05,27.5
2026/04/13 15:05:23.40,IMU,-20.51,-20.02,-1021.97,-1.06,0.98,0.74,-53.10,16.50,14.55,27.1
2026/04/13 15:05:23.50,IMU,-15.63,-21.48,-1009.28,0.48,-1.11,-0.05,-52.50,17.70,16.95,27.7
2026/04/13 15:05:23.60,IMU,-14.16,-18.07,-1009.28,-0.21,-0.72,0.97,-52.80,18.30,15.60,27.5
2026/04/13 15:05:23.70,IMU,-25.39,-10.74,-1021.00,0.76,0.96,0.16,-53.70,17.40,15.45,27.5
2026/04/13 15:05:23.80,IMU,-26.86,-18.55,-1020.02,-0.05,2.18,0.66,-52.95,17.70,17.55,27.5
2026/04/13 15:05:23.90,IMU,-26.86,-2.44,-1014.16,0.90,-0.18,0.08,-52.35,15.75,16.05,27.3
2026/04/13 15:05:24.00,IMU,-25.39,-16.11,-1016.11,0.66,-1.62,2.21,-53.10,16.80,14.25,27.5
2026/04/13 15:05:24.10,IMU,-19.53,-15.14,-1013.18,0.08,-0.38,1.63,-53.10,16.80,17.10,27.3
2026/04/13 15:05:24.20,IMU,-10.74,-23.93,-1003.42,-1.76,0.39,-1.44,-52.35,17.55,16.05,27.3
2026/04/13 15:05:24.30,IMU,-16.11,-21.48,-1024.41,-0.22,-0.79,2.12,-52.80,16.80,16.65,27.4
2026/04/13 15:05:24.40,IMU,-23.93,-22.46,-1026.86,-0.54,1.76,-1.50,-51.00,17.70,15.75,27.5
2026/04/13 15:05:24.50,IMU,-20.51,-15.14,-1007.32,-1.18,2.65,1.27,-52.20,17.40,16.95,27.3
2026/04/13 15:05:24.60,IMU,-28.32,-12.70,-1010.74,0.25,0.33,1.82,-53.25,16.95,16.95,27.3
2026/04/13 15:05:24.70,IMU,-26.86,-12.70,-1015.63,-0.45,-0.32,0.76,-52.95,17.40,16.50,27.1
2026/04/13 15:05:24.80,IMU,-33.69,-27.83,-1010.74,1.79,2.32,-2.37,-52.80,16.80,16.05,27.5
2026/04/13 15:05:24.90,IMU,-19.53,-14.65,-1012.21,-1.44,1.54,-1.00,-53.25,18.15,18.00,27.3
2026/04/13 15:05:25.00,IMU,-28.81,-26.86,-1017.58,-0.18,1.52,-0.01,-51.30,16.50,15.30,27.6
2026/04/13 15:05:25.10,IMU,-21.97,-22.95,-1006.84,-0.18,1.11,-0.31,-53.40,16.50,16.05,27.5
2026/04/13 15:05:25.20,IMU,-27.34,-17.58,-1012.21,0.28,-3.01,1.08,-53.10,17.25,15.60,27.6
2026/04/13 15:05:25.30,IMU,-18.55,-20.02,-1027.83,-0.08,1.16,-1.01,-52.20,17.40,16.50,27.2
2026/04/13 15:05:25.40,IMU,-21.00,-29.79,-1012.21,0.72,1.34,-0.11,-53.10,16.50,17.85,27.4
2026/04/13 15:05:25.50,IMU,-28.81,-21.48,-1013.67,0.27,0.34,-0.86,-51.75,17.40,16.50,27.5
2026/04/13 15:05:25.60,IMU,-20.02,-21.48,-1026.86,0.60,0.27,-0.41,-53.85,16.50,16.05,27.5
2026/04/13 15:05:25.70,IMU,-26.37,-17.58,-1006.35,1.18,-0.85,2.46,-51.75,16.20,16.20,27.6
2026/04/13 15:05:25.80,IMU,-22.46,-28.81,-1025.88,1.47,2.31,2.55,-50.55,15.75,16.05,27.5
2026/04/13 15:05:25.90,IMU,-37.11,-20.02,-1019.53,1.07,0.95,0.45,-52.35,18.00,16.35,27.5
2026/04/13 15:05:26.00,IMU,-10.25,-10.74,-1018.07,1.07,0.76,0.54,-52.95,15.45,16.95,27.5
2026/04/13 15:05:26.10,IMU,-20.51,-24.41,-1017.58,0.42,-0.34,4.72,-52.50,16.20,16.50,27.7
2026/04/13 15:05:26.20,IMU,-21.00,-27.34,-1010.25,-0.31,1.76,-0.88,-51.60,16.50,16.65,27.6
2026/04/13 15:05:26.31,IMU,-27.83,-22.95,-1017.58,0.58,-0.24,2.08,-53.10,14.85,16.65,27.5
2026/04/13 15:05:26.41,IMU,-34.18,-16.60,-1005.86,0.10,1.32,-1.60,-53.25,16.95,16.20,27.3
2026/04/13 15:05:26.51,IMU,-32.71,-33.20,-1015.63,-1.08,1.47,-2.10,-52.50,16.95,16.20,27.5
2026/04/13 15:05:26.61,IMU,-19.04,-24.90,-1011.23,1.44,0.79,3.11,-53.70,16.95,15.75,27.5
2026/04/13 15:05:26.71,IMU,-31.25,-14.16,-1011.72,-0.24,0.31,1.10,-53.40,17.25,15.30,27.3
2026/04/13 15:05:26.81,IMU,-35.16,-27.34,-1005.37,0.78,2.07,1.40,-52.35,16.80,16.05,27.6
2026/04/13 15:05:26.91,IMU,-29.30,-28.32,-1017.09,0.35,-0.44,-0.21,-52.80,16.05,15.60,27.5
2026/04/13 15:05:27.01,IMU,-27.34,-22.46,-1023.44,0.48,-0.05,1.45,-52.20,17.40,16.20,27.6
2026/04/13 15:05:27.11,IMU,-24.90,-7.32,-1002.44,-0.95,-0.99,2.48,-53.25,15.90,16.95,27.3
2026/04/13 15:05:27.21,IMU,-34.18,-18.07,-1013.67,-0.09,-1.03,-1.27,-52.50,16.95,15.75,27.3
2026/04/13 15:05:27.31,IMU,-36.62,-20.51,-1014.65,0.60,-1.66,0.99,-52.80,18.75,15.60,27.5
2026/04/13 15:05:27.41,IMU,-13.67,-24.90,-997.56,0.55,2.22,1.23,-53.70,16.65,17.25,27.5
2026/04/13 15:05:27.51,IMU,-12.21,-21.00,-1000.49,1.13,-1.50,1.53,-52.95,17.40,16.50,27.2
2026/04/13 15:05:27.61,IMU,-31.25,-22.46,-1010.74,0.11,1.34,-3.68,-52.50,16.95,16.50,27.6
2026/04/13 15:05:27.71,IMU,-35.64,-15.14,-1003.91,-0.26,1.10,0.21,-53.85,17.55,15.60,27.3
2026/04/13 15:05:27.81,IMU,-21.48,-29.79,-1000.00,-0.21,-0.12,2.92,-54.75,14.40,19.05,27.3
2026/04/13 15:05:27.91,IMU,-21.00,-14.16,-1017.09,-1.95,0.54,-1.03,-52.20,15.90,17.55,27.5
2026/04/13 15:05:28.01,IMU,-17.58,-24.90,-1016.11,-0.98,0.58,1.69,-54.15,17.55,16.35,27.2
2026/04/13 15:05:28.11,IMU,-22.95,-20.02,-1017.09,-1.00,1.21,1.47,-53.25,16.65,16.20,27.3
2026/04/13 15:05:28.21,IMU,-12.21,-7.81,-1010.25,2.14,0.41,-0.72,-52.50,16.95,16.50,27.2
2026/04/13 15:05:28.31,IMU,-30.76,-12.70,-1025.88,0.18,1.65,0.16,-52.20,16.95,16.20,27.5
2026/04/13 15:05:28.41,IMU,-24.41,-21.48,-1013.18,-0.21,-0.34,0.73,-53.70,16.65,15.75,27.3
2026/04/13 15:05:28.51,IMU,-21.97,-21.00,-1022.95,0.74,-0.14,-0.23,-52.20,16.20,16.50,27.5
2026/04/13 15:05:28.61,IMU,-24.90,-11.23,-1021.48,0.87,0.40,2.95,-53.10,16.50,16.65,27.3
2026/04/13 15:05:28.71,IMU,-19.04,-7.81,-1019.53,-1.85,1.84,0.95,-52.95,15.90,15.75,27.7
2026/04/13 15:05:28.81,IMU,-28.81,-20.51,-1021.00,0.56,-0.29,0.99,-55.65,15.75,18.90,27.5
2026/04/13 15:05:28.91,IMU,-19.04,-28.32,-1023.93,-3.44,0.80,2.95,-52.95,15.90,16.95,27.6
2026/04/13 15:05:29.01,IMU,-8.30,-17.58,-1027.83,-1.15,0.17,-2.51,-52.50,17.40,15.75,27.3
2026/04/13 15:05:29.11,IMU,-15.14,-22.95,-1018.07,0.56,-0.97,1.57,-51.75,16.20,16.95,27.4
2026/04/13 15:05:29.21,IMU,-28.32,-36.13,-1018.55,-0.65,-0.61,1.33,-53.70,15.45,15.75,27.6
2026/04/13 15:05:29.32,IMU,-23.93,-16.11,-1016.60,-0.16,-0.75,2.24,-52.05,16.80,14.85,27.2
2026/04/13 15:05:29.42,IMU,-27.83,-23.44,-1016.60,-0.21,0.51,-0.79,-53.40,18.30,15.30,27.6
2026/04/13 15:05:29.52,IMU,-17.58,-19.04,-1011.23,0.18,-1.18,2.15,-53.40,17.25,16.35,27.5
2026/04/13 15:05:29.62,IMU,-22.46,-25.88,-1016.60,0.66,-0.42,-1.51,-52.35,16.05,16.35,27.6
2026/04/13 15:05:29.72,IMU,-25.39,-24.90,-1021.00,-0.34,-0.07,-0.15,-53.25,16.95,16.20,27.5
2026/04/13 15:05:29.82,IMU,-23.93,-26.86,-1015.14,-0.11,0.51,-0.48,-55.05,13.20,20.55,27.3
2026/04/13 15:05:29.92,IMU,-14.16,-28.32,-1005.37,0.10,0.37,-3.12,-54.45,15.90,16.50,27.5
2026/04/13 15:05:30.02,IMU,-23.93,-24.41,-1016.11,-0.98,0.41,-0.25,-53.70,15.90,15.75,27.5
2026/04/13 15:05:30.12,IMU,-21.48,-25.88,-997.07,-1.82,2.13,-1.24,-53.40,16.50,16.35,27.3
2026/04/13 15:05:30.22,IMU,-27.34,-15.63,-1009.77,0.11,-0.92,0.88,-51.45,17.70,16.50,27.6
2026/04/13 15:05:30.32,IMU,-32.23,-12.21,-1012.70,-0.20,-1.01,0.28,-52.20,16.95,15.75,27.6
2026/04/13 15:05:30.42,IMU,-13.18,-25.39,-1004.39,-1.07,2.31,0.12,-53.85,16.80,16.05,27.6
2026/04/13 15:05:30.52,IMU,-21.48,-9.77,-1012.70,-0.69,0.43,0.10,-52.50,17.40,16.50,27.5
2026/04/13 15:05:30.62,IMU,-22.95,-15.14,-1009.28,0.42,-0.58,2.23,-52.50,15.90,16.95,27.1
2026/04/13 15:05:30.72,IMU,-32.71,-16.11,-1005.37,-0.52,1.37,-0.10,-53.70,16.65,16.95,27.3
2026/04/13 15:05:30.83,IMU,-38.09,-23.44,-1007.81,-0.95,-1.56,1.25,-56.40,14.10,21.45,27.5
2026/04/13 15:05:30.93,IMU,-19.04,-20.51,-1006.84,-0.18,-0.79,2.34,-51.45,16.20,14.70,27.5
2026/04/13 15:05:31.03,IMU,-18.07,-16.11,-1019.04,1.09,-0.44,0.19,-51.60,16.80,16.65,27.5
2026/04/13 15:05:31.13,IMU,-23.93,-37.11,-1025.39,-1.71,-0.47,1.71,-52.95,15.90,16.95,27.6
2026/04/13 15:05:31.23,IMU,-21.97,-18.55,-1024.41,-1.44,-0.36,0.10,-52.50,16.65,16.50,27.5
2026/04/13 15:05:31.33,IMU,-23.93,-33.20,-1019.53,0.73,0.40,3.98,-53.70,15.90,17.25,27.5
2026/04/13 15:05:31.43,IMU,-25.39,-13.67,-1021.00,1.61,0.11,0.11,-53.25,16.20,16.20,27.5
2026/04/13 15:05:31.53,IMU,-16.11,-20.02,-1019.53,-0.45,1.29,0.02,-52.05,16.80,15.30,27.3
2026/04/13 15:05:31.63,IMU,-24.90,-11.23,-1025.88,-0.61,-2.64,1.52,-53.70,16.65,18.00,27.3
2026/04/13 15:05:31.73,IMU,-25.39,-21.00,-1016.60,-1.33,0.63,-0.24,-52.95,15.90,16.50,27.3
2026/04/13 15:05:31.83,IMU,-25.88,-17.09,-1021.00,0.53,-0.37,-0.19,-52.20,17.40,16.20,27.5
2026/04/13 15:05:31.93,IMU,-14.16,-15.63,-1026.86,-1.11,1.39,0.37,-52.95,16.65,16.50,27.6
2026/04/13 15:05:32.03,IMU,-21.97,-16.11,-1011.23,-0.53,-0.37,0.98,-51.45,15.45,17.55,27.5
2026/04/13 15:05:32.13,IMU,-21.97,-29.30,-1021.48,0.08,0.43,-0.60,-52.50,16.65,16.20,27.3
2026/04/13 15:05:32.23,IMU,-26.37,-21.48,-1021.48,-0.19,2.82,-2.04,-52.80,16.50,16.35,27.5
2026/04/13 15:05:32.33,IMU,-27.83,-15.14,-1016.11,0.30,1.71,-0.60,-51.75,16.95,17.55,27.6
2026/04/13 15:05:32.43,IMU,-20.02,-20.51,-1016.11,1.62,0.43,2.25,-52.50,15.90,17.25,27.6
2026/04/13 15:05:32.53,IMU,-22.46,-20.51,-1001.46,-0.88,-0.70,1.05,-53.85,16.05,15.60,27.5
2026/04/13 15:05:32.63,IMU,-10.74,-24.41,-997.56,-0.06,2.55,0.25,-52.80,15.30,16.35,27.5
2026/04/13 15:05:32.73,IMU,-26.37,-23.93,-1020.51,-1.15,-1.65,0.23,-53.25,15.90,17.55,27.5
2026/04/13 15:05:32.83,IMU,-37.60,-26.86,-1011.23,0.60,0.69,1.88,-51.30,16.05,15.30,27.3
2026/04/13 15:05:32.93,IMU,-20.51,-11.23,-1007.32,0.15,0.11,0.33,-52.50,16.65,17.25,27.4
2026/04/13 15:05:33.03,IMU,-31.74,-14.16,-994.63,-0.14,0.65,0.28,-53.25,16.20,15.45,27.6
2026/04/13 15:05:33.13,IMU,-25.88,-21.00,-1010.25,2.85,0.17,0.60,-52.20,18.60,16.50,27.5
2026/04/13 15:05:33.23,IMU,-25.88,-7.32,-998.05,-0.32,-0.24,-1.31,-53.25,16.95,16.50,27.5
2026/04/13 15:05:33.34,IMU,-30.76,-27.83,-1023.93,-1.98,0.53,-3.09,-52.35,16.05,16.65,27.7
2026/04/13 15:05:33.44,IMU,-36.13,-7.32,-1005.37,-0.51,-1.33,1.68,-52.35,16.50,16.05,27.3
2026/04/13 15:05:33.54,IMU,-25.39,-22.46,-1016.60,0.20,0.61,0.56,-52.50,16.20,15.45,27.6
2026/04/13 15:05:33.64,IMU,-13.67,-19.04,-1005.86,0.08,2.92,-2.62,-53.40,17.25,16.05,27.7
2026/04/13 15:05:33.74,IMU,-18.55,-22.95,-1019.53,-1.02,2.37,-4.44,-51.75,15.90,16.95,27.6
2026/04/13 15:05:33.84,IMU,-9.77,-14.16,-1024.41,2.07,-1.11,-1.08,-54.15,16.05,17.10,27.3
2026/04/13 15:05:33.94,IMU,-31.25,-7.81,-1002.44,0.69,-1.11,-0.87,-52.35,16.05,17.10,27.5
2026/04/13 15:05:34.04,IMU,-21.00,-13.18,-1034.18,0.01,1.99,2.15,-53.40,18.00,17.85,27.3
2026/04/13 15:05:34.14,IMU,-16.11,-21.97,-1023.93,-0.11,-0.32,-0.44,-52.95,15.90,15.75,27.5
2026/04/13 15:05:34.24,IMU,-24.90,-29.79,-1020.51,0.64,0.59,1.05,-53.25,16.65,17.25,27.5
2026/04/13 15:05:34.34,IMU,-41.99,-22.95,-1016.60,-1.44,-0.59,3.85,-52.20,17.40,16.20,27.2
2026/04/13 15:05:34.44,IMU,-26.37,-13.18,-1023.44,-0.26,0.97,-0.82,-52.80,16.05,17.10,27.5
2026/04/13 15:05:34.54,IMU,-25.88,-14.16,-1000.98,-1.44,3.82,-0.12,-53.70,16.95,15.75,27.6
2026/04/13 15:05:34.64,IMU,-42.97,-17.58,-1009.28,1.34,0.27,-2.18,-53.70,16.95,15.75,27.6
2026/04/13 15:05:34.74,IMU,-32.23,-30.76,-1014.65,-1.07,-1.47,1.25,-52.20,15.90,16.20,27.5
2026/04/13 15:05:34.84,IMU,-10.25,-24.90,-1015.14,0.71,-0.32,3.09,-51.60,17.25,15.60,27.5
2026/04/13 15:05:34.94,IMU,-26.37,-21.00,-997.56,-0.80,0.27,0.32,-52.20,16.20,16.50,27.3
2026/04/13 15:05:35.04,IMU,-15.63,-16.60,-991.70,0.24,-0.09,-1.20,-53.10,16.05,15.30,27.5
2026/04/13 15:05:35.14,IMU,-21.00,-17.09,-1013.67,0.02,1.87,-2.99,-53.10,16.50,16.05,27.3
2026/04/13 15:05:35.24,IMU,-35.64,-22.46,-998.05,-0.75,0.13,-1.90,-53.10,16.50,16.35,27.1
2026/04/13 15:05:35.34,IMU,-27.83,-9.77,-1000.49,-0.50,0.69,1.47,-53.10,16.05,16.35,27.5
2026/04/13 15:05:35.44,IMU,-35.16,-18.55,-1014.16,1.21,2.98,0.21,-53.85,15.75,17.40,27.5
2026/04/13 15:05:35.54,IMU,-13.67,-21.97,-1009.28,-0.63,0.66,1.82,-54.15,16.50,16.65,27.6
2026/04/13 15:05:35.64,IMU,-25.39,-23.93,-1006.84,-0.70,2.59,1.19,-52.35,17.25,16.35,27.6
2026/04/13 15:05:35.74,IMU,-19.04,-20.02,-1008.79,-0.43,1.44,0.21,-53.40,16.50,16.05,27.5
2026/04/13 15:05:35.84,IMU,-35.64,-32.23,-1010.74,-0.05,-0.24,-1.89,-52.95,16.20,16.50,27.6
2026/04/13 15:05:35.94,IMU,-26.86,-4.39,-1018.55,-0.50,0.19,-0.79,-54.45,15.15,16.95,27.6
2026/04/13 15:05:36.04,IMU,-22.95,-23.44,-1021.48,0.54,2.65,-2.47,-53.25,16.95,17.85,27.4
2026/04/13 15:05:36.14,IMU,-23.44,-23.93,-1010.74,1.99,0.72,-1.25,-53.25,15.90,17.55,27.5
2026/04/13 15:05:36.24,IMU,-28.81,-10.25,-1015.14,-1.66,1.91,-1.01,-52.35,16.50,17.10,27.5
2026/04/13 15:05:36.35,IMU,-22.95,-22.95,-1016.60,1.16,0.75,2.90,-52.80,16.50,15.30,27.5
2026/04/13 15:05:36.45,IMU,-27.34,-29.79,-1018.07,0.71,-0.79,0.00,-53.10,17.55,16.35,27.5
2026/04/13 15:05:36.55,IMU,-33.20,-15.63,-1025.88,1.92,-0.37,-0.82,-52.80,16.05,15.30,27.5
2026/04/13 15:05:36.65,IMU,-17.58,-27.83,-1020.51,0.27,2.17,-0.62,-53.70,17.70,16.20,27.5
2026/04/13 15:05:36.75,IMU,-32.71,-21.97,-1027.83,-1.06,-1.05,2.46,-53.25,16.95,16.50,27.5
2026/04/13 15:05:36.85,IMU,-21.97,-21.00,-1012.21,1.54,-0.54,-1.80,-51.75,16.20,16.50,27.5
2026/04/13 15:05:36.95,IMU,-18.07,-36.62,-1021.48,-0.55,-1.88,-2.13,-53.40,17.25,17.40,27.3
2026/04/13 15:05:37.05,IMU,-20.02,-42.48,-1024.41,0.91,1.48,0.24,-53.70,16.20,15.75,27.5
2026/04/13 15:05:37.15,IMU,-20.02,-14.16,-1027.34,-0.74,-0.08,1.26,-51.45,17.70,16.20,27.5
2026/04/13 15:05:37.25,IMU,-18.55,-23.93,-1013.67,-1.02,0.35,-0.57,-53.25,17.40,16.20,27.5
2026/04/13 15:05:37.35,IMU,-22.95,-20.02,-1016.60,-0.73,0.91,1.44,-53.10,16.05,16.05,27.5
2026/04/13 15:05:37.45,IMU,-25.88,-24.90,-1021.48,-0.85,0.35,2.17,-53.10,15.75,16.05,27.5
2026/04/13 15:05:37.55,IMU,-20.02,-15.63,-1006.35,0.95,1.61,-0.13,-52.35,16.80,15.30,27.7
2026/04/13 15:05:37.65,IMU,-10.74,-30.76,-1016.60,-1.22,0.15,-0.44,-52.35,16.50,14.55,27.5
2026/04/13 15:05:37.75,IMU,-21.48,-19.53,-1000.49,0.89,0.67,1.45,-52.95,16.95,16.50,27.5
2026/04/13 15:05:37.85,IMU,-18.55,-20.51,-998.54,1.71,0.65,3.64,-52.05,16.05,16.05,27.2
2026/04/13 15:05:37.95,IMU,-28.81,-33.69,-1007.32,-1.47,0.85,-1.05,-54.90,15.75,18.45,27.6
2026/04/13 15:05:38.05,IMU,-22.46,-14.16,-1018.07,-0.25,-0.18,-1.60,-52.35,16.05,16.05,27.5
2026/04/13 15:05:38.15,IMU,-26.37,-16.60,-994.63,1.46,-1.10,-1.57,-53.10,16.50,16.65,27.5
2026/04/13 15:05:38.25,IMU,-13.18,-12.70,-1007.32,-0.66,-0.11,-1.89,-53.40,17.25,16.05,27.5
2026/04/13 15:05:38.35,IMU,-20.51,-14.16,-1019.04,0.51,0.49,0.86,-53.40,16.50,15.30,27.8
2026/04/13 15:05:38.45,IMU,-15.14,-17.58,-1001.95,0.69,0.84,-1.85,-52.95,16.95,16.20,27.5
2026/04/13 15:05:38.55,IMU,-24.90,-32.71,-1014.65,-1.04,1.42,-1.66,-53.85,16.50,16.35,27.3
2026/04/13 15:05:38.65,IMU,-15.63,-17.58,-1017.58,0.39,0.20,-1.25,-53.10,17.55,16.65,27.5
2026/04/13 15:05:38.75,IMU,-24.41,-25.39,-1021.97,0.46,-0.13,0.11,-52.95,17.40,14.70,27.6
2026/04/13 15:05:38.85,IMU,-24.90,-16.11,-1004.88,-0.89,-0.34,2.25,-53.25,16.65,17.25,27.6
2026/04/13 15:05:38.95,IMU,-44.92,-17.58,-1024.90,-1.09,-0.02,-1.12,-52.80,14.85,17.40,27.5
2026/04/13 15:05:39.05,IMU,-25.39,-34.18,-1032.23,-0.37,0.62,0.85,-53.25,16.20,16.50,27.6
2026/04/13 15:05:39.15,IMU,-11.72,-28.81,-1016.60,1.32,-0.14,0.27,-52.35,16.50,16.65,27.2
2026/04/13 15:05:39.26,IMU,-21.48,-32.71,-1021.97,0.01,-0.72,1.00,-53.70,17.40,15.75,27.5
2026/04/13 15:05:39.36,IMU,-31.25,-19.04,-1020.02,-0.40,-0.98,-0.66,-52.80,16.05,15.30,27.3
2026/04/13 15:05:39.46,IMU,-22.46,-25.39,-1012.21,-0.50,1.74,-0.75,-52.95,16.20,15.75,27.5
2026/04/13 15:05:39.56,IMU,-20.51,-17.09,-1021.97,-0.22,0.33,2.06,-53.25,16.65,16.95,27.5
2026/04/13 15:05:39.66,IMU,-30.27,-22.95,-1038.57,-1.38,-0.21,-1.27,-52.35,17.55,15.60,27.5
2026/04/13 15:05:39.76,IMU,-18.55,-16.60,-1007.81,0.11,1.47,1.95,-53.40,16.80,15.60,27.4
2026/04/13 15:05:39.86,IMU,-20.02,-10.25,-1013.67,-0.05,0.78,-0.53,-53.10,16.05,16.35,27.6
2026/04/13 15:05:39.97,IMU,-31.74,-15.63,-1007.32,-0.42,3.45,-2.12,-53.70,15.90,18.75,27.5
2026/04/13 15:05:40.07,IMU,-12.21,-12.21,-1015.14,-0.47,-0.57,2.89,-52.50,16.65,16.50,27.5
2026/04/13 15:05:40.17,IMU,-8.79,-11.72,-1017.09,0.50,1.74,-0.85,-52.95,16.95,15.15,27.3
2026/04/13 15:05:40.27,IMU,-26.37,-23.44,-1006.84,0.15,0.11,-0.37,-53.25,16.20,15.15,27.7
2026/04/13 15:05:40.37,IMU,-21.00,-31.74,-1008.79,-1.75,-0.48,0.05,-53.10,16.50,17.10,27.3
2026/04/13 15:05:40.47,IMU,-24.41,-8.30,-1003.91,-1.45,0.11,-2.30,-52.50,14.70,16.50,27.7
2026/04/13 15:05:40.57,IMU,-27.34,-23.44,-993.16,-0.73,0.98,1.98,-52.35,16.50,16.05,27.6
2026/04/13 15:05:40.67,IMU,-16.60,-8.30,-1001.46,0.10,0.62,-1.21,-53.25,16.65,14.70,27.6
2026/04/13 15:05:40.77,IMU,-29.79,-15.63,-1008.79,-0.49,-0.47,-0.89,-52.35,16.05,16.05,27.8
2026/04/13 15:05:40.87,IMU,-38.09,-23.44,-1023.44,0.90,0.95,0.82,-51.45,16.20,16.20,27.5
2026/04/13 15:05:40.97,IMU,-33.69,-19.53,-1009.28,0.06,-1.50,-0.12,-52.80,16.50,15.30,27.5
2026/04/13 15:05:41.07,IMU,-21.97,-24.41,-1014.16,-0.11,1.27,0.75,-53.10,17.55,17.10,27.6
2026/04/13 15:05:41.17,IMU,-34.67,-21.97,-1007.32,0.85,1.66,-0.65,-51.75,16.95,17.25,27.6
2026/04/13 15:05:41.27,IMU,-24.90,-21.97,-1021.97,-0.19,1.18,-0.08,-53.10,18.00,15.60,27.6
2026/04/13 15:05:41.37,IMU,-23.93,-21.00,-1008.79,-0.09,-2.58,0.41,-52.50,15.90,15.75,27.5
2026/04/13 15:05:41.47,IMU,-17.09,-19.04,-1021.48,-0.76,0.53,-1.22,-52.50,17.40,15.75,27.3
2026/04/13 15:05:41.57,IMU,-30.76,-18.55,-1024.90,0.29,-0.99,-0.85,-52.50,16.95,16.20,27.5
2026/04/13 15:05:41.67,IMU,-22.46,-24.90,-1029.30,-0.93,0.02,0.01,-52.35,15.75,16.35,27.3
2026/04/13 15:05:41.77,IMU,-28.81,-18.07,-1012.70,-0.37,-0.47,-0.20,-52.50,14.70,16.20,27.7
2026/04/13 15:05:41.87,IMU,-31.25,-27.83,-1013.67,-0.60,-0.39,-0.34,-53.10,15.75,16.35,27.6
2026/04/13 15:05:41.97,IMU,-31.25,-13.67,-1027.83,-0.99,-2.38,-0.82,-54.00,15.90,15.75,27.5
2026/04/13 15:05:42.07,IMU,-23.93,-13.18,-1008.79,-0.32,0.85,-1.80,-52.50,16.65,17.25,27.5
2026/04/13 15:05:42.17,IMU,-28.81,-23.44,-1029.79,-0.63,2.21,1.40,-52.35,16.80,17.10,27.6
2026/04/13 15:05:42.27,IMU,-39.06,-23.44,-1001.46,-0.49,1.54,-1.30,-51.75,15.15,15.45,27.5
2026/04/13 15:05:42.37,IMU,-29.30,-10.74,-1006.84,0.24,3.85,1.50,-52.80,16.05,16.05,27.5
2026/04/13 15:05:42.47,IMU,-26.86,-25.39,-1012.21,-1.19,0.60,0.30,-53.85,17.55,15.60,27.5
2026/04/13 15:05:42.57,IMU,-27.83,-14.16,-1013.18,-0.52,0.33,0.68,-53.10,17.25,16.05,27.5
2026/04/13 15:05:42.68,IMU,-21.97,-21.48,-1022.95,0.43,0.08,0.15,-53.10,14.85,16.05,27.6
2026/04/13 15:05:42.78,IMU,-20.51,-31.74,-1010.74,-0.44,-1.31,0.34,-53.25,15.45,16.20,27.5
2026/04/13 15:05:42.88,IMU,-19.53,-37.60,-1010.74,0.73,0.19,0.30,-52.35,14.85,15.60,27.6
2026/04/13 15:05:42.98,IMU,-13.67,-15.63,-1008.30,0.16,-0.97,0.01,-53.25,15.45,16.95,27.3
2026/04/13 15:05:43.08,IMU,-34.18,-9.77,-1014.16,0.82,2.27,-0.40,-52.35,16.50,16.35,27.6
2026/04/13 15:05:43.18,IMU,-21.97,-22.46,-1006.35,-1.10,-1.00,-1.21,-52.80,17.55,15.30,27.6
2026/04/13 15:05:43.28,IMU,-24.90,-20.51,-1011.23,-0.95,1.32,-0.60,-52.80,16.80,17.10,27.5
2026/04/13 15:05:43.38,IMU,-40.53,-24.41,-1020.51,-0.60,0.18,0.92,-52.20,15.45,15.45,27.5
2026/04/13 15:05:43.48,IMU,-35.16,-15.14,-1018.07,-1.59,0.16,-0.76,-53.70,17.40,15.15,27.5
2026/04/13 15:05:43.58,IMU,-18.55,-24.90,-1018.07,0.22,-0.29,-1.19,-53.25,16.95,15.75,27.5
2026/04/13 15:05:43.68,IMU,-22.95,-15.14,-997.07,-0.31,0.20,-2.40,-53.70,17.40,16.20,27.5
2026/04/13 15:05:43.78,IMU,-25.39,-18.55,-1026.86,0.88,2.89,-0.37,-53.70,16.65,15.75,27.7
2026/04/13 15:05:43.88,IMU,-23.93,-26.37,-1019.53,1.68,1.25,-0.64,-52.05,16.80,15.30,27.5
2026/04/13 15:05:43.98,IMU,-30.27,-27.34,-1011.23,0.08,-1.83,0.02,-53.25,17.40,15.75,27.4
2026/04/13 15:05:44.08,IMU,-29.79,-24.41,-1023.93,-0.09,2.21,1.64,-53.25,16.65,16.20,27.6
2026/04/13 15:05:44.18,IMU,-10.25,-17.09,-1015.14,0.63,0.19,-0.58,-52.50,16.95,15.45,27.6
2026/04/13 15:05:44.28,IMU,-14.65,-12.70,-1015.63,1.51,-0.95,2.05,-54.00,16.95,16.20,27.6
2026/04/13 15:05:44.38,IMU,-6.35,-21.00,-1022.95,0.73,0.93,-1.21,-53.25,15.90,16.20,27.5
2026/04/13 15:05:44.48,IMU,-24.90,-15.63,-1019.04,-0.08,0.63,-0.88,-53.10,15.30,15.30,27.2
2026/04/13 15:05:44.58,IMU,-23.93,-17.09,-991.21,-1.27,1.02,0.18,-53.10,17.25,16.65,27.6
2026/04/13 15:05:44.68,IMU,-29.30,-17.58,-1024.41,0.57,0.79,-1.08,-52.05,16.80,17.10,27.6
2026/04/13 15:05:44.78,IMU,-18.55,-15.63,-1024.41,1.02,-0.38,-1.33,-52.95,16.20,16.95,27.5
2026/04/13 15:05:44.88,IMU,-28.81,-19.53,-1020.51,0.31,0.07,1.66,-52.35,16.80,16.05,27.5
2026/04/13 15:05:44.98,IMU,-12.70,-23.93,-1016.60,-1.37,-1.27,0.30,-52.20,17.40,16.50,27.5
2026/04/13 15:05:45.08,IMU,-25.88,-30.76,-1000.98,2.16,-0.21,-0.90,-52.95,16.20,16.20,27.3
2026/04/13 15:05:45.18,IMU,-18.07,-2.44,-1018.07,0.82,0.37,0.70,-52.50,16.20,16.50,27.6
2026/04/13 15:05:45.28,IMU,-12.21,-39.06,-1051.76,1.05,1.09,1.53,-52.50,16.20,14.70,27.5
2026/04/13 15:05:45.38,IMU,-24.41,-25.39,-1007.81,0.53,-2.35,1.85,-52.35,16.50,15.60,27.1
2026/04/13 15:05:45.48,IMU,-32.71,-19.04,-1011.72,0.05,1.53,-1.76,-53.85,16.80,16.35,27.7
2026/04/13 15:05:45.59,IMU,-25.88,-23.93,-1002.44,0.45,0.50,0.91,-52.80,17.25,17.10,27.5
2026/04/13 15:05:45.69,IMU,-16.60,-22.46,-1006.84,0.02,1.72,-0.37,-53.25,17.70,16.20,27.6
2026/04/13 15:05:45.79,IMU,-11.23,-30.27,-1006.35,-0.06,-1.25,0.17,-52.05,16.80,17.10,27.5
2026/04/13 15:05:45.89,IMU,-41.99,-8.79,-1013.18,-0.11,1.37,-1.63,-52.05,17.25,16.35,27.5
2026/04/13 15:05:45.99,IMU,-24.90,-21.97,-1012.70,-0.60,-0.79,-3.18,-51.30,17.55,17.10,27.5
2026/04/13 15:05:46.09,IMU,-9.28,-14.16,-1011.23,-0.29,-0.33,-0.24,-52.80,16.50,16.05,27.6
2026/04/13 15:05:46.19,IMU,-24.90,-17.58,-1012.70,-0.18,0.08,0.86,-52.50,16.95,15.45,27.6
2026/04/13 15:05:46.29,IMU,-20.02,-20.51,-1024.90,1.01,-0.28,-0.19,-52.95,16.65,16.20,27.5
2026/04/13 15:05:46.39,IMU,-25.88,-28.32,-1016.11,1.42,-1.10,0.93,-52.20,16.95,15.75,27.5
2026/04/13 15:05:46.49,IMU,-15.14,-10.74,-1009.28,0.08,0.66,2.00,-51.00,16.65,16.20,27.5
2026/04/13 15:05:46.59,IMU,-30.76,-23.44,-1010.74,-0.15,0.47,-1.00,-53.10,15.75,15.30,27.6
2026/04/13 15:05:46.69,IMU,-27.83,-15.63,-1026.37,0.34,-1.44,0.88,-53.25,16.65,16.20,27.5
2026/04/13 15:05:46.79,IMU,-26.86,-25.39,-1007.81,0.76,0.55,2.70,-53.10,17.25,17.40,27.5
2026/04/13 15:05:46.89,IMU,-34.18,-15.63,-1029.79,0.56,0.14,3.37,-52.50,16.95,14.70,27.5
2026/04/13 15:05:46.99,IMU,-10.74,-23.44,-1018.55,0.57,0.30,0.51,-53.70,15.90,15.75,27.6
2026/04/13 15:05:47.09,IMU,-20.02,-15.63,-1014.65,0.38,0.05,-2.39,-56.10,16.50,17.85,27.6
2026/04/13 15:05:47.19,IMU,-25.39,-22.46,-1008.79,-0.82,2.74,-2.45,-53.85,16.50,16.35,27.5
2026/04/13 15:05:47.29,IMU,-20.51,-14.16,-1018.55,0.89,0.31,3.76,-52.80,15.75,15.60,27.5
2026/04/13 15:05:47.39,IMU,-34.67,-4.88,-1015.63,0.25,-1.74,3.21,-52.05,16.80,14.85,27.6
2026/04/13 15:05:47.49,IMU,-27.34,-32.23,-1007.32,0.23,1.24,1.24,-52.05,15.75,16.05,27.5
2026/04/13 15:05:47.59,IMU,-21.00,-35.64,-1011.23,0.56,0.31,-1.18,-52.20,17.40,15.45,27.5
2026/04/13 15:05:47.69,IMU,-23.44,-27.83,-1013.67,-0.27,1.67,-0.92,-53.10,17.25,16.65,27.5
2026/04/13 15:05:47.79,IMU,-21.00,-21.97,-1018.55,-1.77,1.36,0.77,-53.85,16.50,17.55,27.6
2026/04/13 15:05:47.89,IMU,-17.09,-14.16,-1012.70,0.02,-0.16,0.37,-54.15,17.25,15.60,27.5
2026/04/13 15:05:47.99,IMU,-22.46,-14.65,-1008.79,2.34,-1.15,2.48,-52.35,15.75,15.30,27.7
2026/04/13 15:05:48.10,IMU,-18.07,-30.27,-1021.48,-0.07,3.27,-1.24,-52.20,16.65,17.55,27.8
2026/04/13 15:05:48.20,IMU,-24.41,-30.27,-1021.48,0.24,0.68,1.54,-52.20,15.45,16.20,27.3
2026/04/13 15:05:48.30,IMU,-18.55,-18.55,-1015.14,0.69,-1.16,-1.63,-52.50,17.40,15.75,27.5
2026/04/13 15:05:48.40,IMU,-21.48,-26.86,-1028.81,-1.03,2.63,-1.40,-52.95,16.95,16.95,27.5
2026/04/13 15:05:48.50,IMU,-22.46,-17.09,-1027.83,0.27,0.46,2.63,-52.80,16.50,16.05,27.5
2026/04/13 15:05:48.60,IMU,-30.27,-30.76,-999.02,0.66,1.63,-0.82,-50.85,16.50,15.30,27.6
2026/04/13 15:05:48.70,IMU,-18.55,-18.07,-1038.09,2.19,0.97,-0.25,-52.80,17.25,14.55,27.5
2026/04/13 15:05:48.80,IMU,-26.86,-33.20,-1021.48,2.44,-0.66,2.15,-53.40,18.00,16.35,27.7
2026/04/13 15:05:48.90,IMU,-23.93,-15.14,-1003.42,1.61,-2.41,-0.28,-52.05,16.50,15.30,27.5
2026/04/13 15:05:49.00,IMU,-29.79,-19.53,-1023.93,1.20,-0.21,1.47,-52.80,17.55,15.60,27.5
2026/04/13 15:05:49.10,IMU,-33.69,-13.67,-1011.23,1.05,1.21,0.67,-53.85,17.25,15.60,27.3
2026/04/13 15:05:49.20,IMU,-28.81,-19.53,-1027.34,0.85,-0.18,-0.17,-51.30,15.30,15.30,27.6
2026/04/13 15:05:49.30,IMU,-23.93,-13.18,-1005.86,-0.65,0.92,1.15,-52.35,16.50,16.35,27.5
2026/04/13 15:05:49.40,IMU,-27.34,-22.95,-1012.21,-2.11,1.56,1.53,-53.10,16.05,16.35,27.6
2026/04/13 15:05:49.50,IMU,-3.42,-26.86,-1014.16,1.15,1.15,0.68,-53.40,16.80,17.10,27.5
2026/04/13 15:05:49.60,IMU,-31.74,-17.58,-1014.16,1.42,-0.73,0.62,-53.70,16.20,16.20,27.6
2026/04/13 15:05:49.70,IMU,-20.02,-26.37,-1010.74,-1.66,0.64,1.32,-53.40,16.05,15.30,27.6
2026/04/13 15:05:49.80,IMU,-25.39,-22.46,-1002.44,0.31,-0.79,-1.85,-52.95,16.20,17.25,27.6
2026/04/13 15:05:49.90,IMU,-21.48,-30.76,-1013.18,0.69,-0.61,-0.34,-52.35,15.75,15.30,27.5
2026/04/13 15:05:50.00,IMU,-21.00,-27.34,-1010.74,1.40,0.66,-0.24,-52.50,16.20,16.20,27.6
2026/04/13 15:05:50.10,IMU,-15.63,-23.93,-1003.91,1.34,0.82,0.23,-52.80,17.25,17.10,27.6
2026/04/13 15:05:50.20,IMU,-18.07,-22.95,-1021.00,-1.19,-0.12,0.20,-51.75,17.40,17.25,27.6
2026/04/13 15:05:50.30,IMU,-31.74,-21.97,-1019.04,1.20,0.10,-0.43,-52.50,16.95,16.20,27.6
2026/04/13 15:05:50.40,IMU,-27.34,-27.34,-1014.16,0.20,1.18,2.15,-54.60,16.05,17.10,27.3
2026/04/13 15:05:50.50,IMU,-31.74,-16.11,-1011.72,-0.13,-0.88,-2.63,-52.80,17.25,15.30,27.7
2026/04/13 15:05:50.60,IMU,-26.37,-15.14,-1021.00,0.89,-1.76,1.85,-52.80,17.55,16.05,27.5
2026/04/13 15:05:50.70,IMU,-33.69,-12.70,-1028.81,-1.32,1.37,-1.19,-51.60,16.80,16.05,27.6
2026/04/13 15:05:50.80,IMU,-27.83,-1.95,-995.61,-1.35,-0.43,-0.79,-51.75,16.95,16.20,27.6
2026/04/13 15:05:50.90,IMU,-18.55,-24.41,-1022.46,-0.30,1.54,-1.87,-52.05,17.55,16.65,27.6
2026/04/13 15:05:51.01,IMU,-15.14,-18.07,-1029.79,0.79,-0.77,-0.70,-52.95,16.95,17.25,27.8
2026/04/13 15:05:51.11,IMU,-28.81,-16.60,-991.70,0.81,-0.32,2.34,-53.10,16.50,16.35,27.5
2026/04/13 15:05:51.21,IMU,-37.11,-26.86,-1023.44,0.06,0.66,-0.40,-52.95,16.65,16.50,27.3
2026/04/13 15:05:51.31,IMU,-18.55,-24.90,-1025.39,-0.53,-2.62,1.44,-52.80,15.75,16.35,27.5
2026/04/13 15:05:51.41,IMU,-21.48,-18.55,-1014.65,1.70,-0.74,-3.04,-52.35,16.05,16.65,27.7
2026/04/13 15:05:51.51,IMU,-23.44,-16.60,-1018.07,0.24,0.45,-3.85,-52.35,16.05,16.05,27.7
2026/04/13 15:05:51.61,IMU,-18.07,-18.55,-1008.30,-1.56,-0.31,-0.60,-52.50,17.40,16.20,27.5
2026/04/13 15:05:51.71,IMU,-21.48,-28.32,-1013.18,1.50,0.22,1.79,-53.70,15.90,15.45,27.3
2026/04/13 15:05:51.81,IMU,-11.23,-15.14,-1015.63,0.22,1.63,2.58,-52.80,16.80,16.05,27.5
2026/04/13 15:05:51.91,IMU,-22.46,-15.14,-1007.81,0.61,1.52,-1.83,-52.80,17.25,16.05,27.4
2026/04/13 15:05:52.01,IMU,-26.37,-16.60,-1017.09,1.33,-2.57,2.37,-52.20,16.20,15.45,27.6
2026/04/13 15:05:52.11,IMU,-28.81,-20.02,-1017.58,0.08,-0.36,-2.25,-52.80,17.55,15.60,27.5
2026/04/13 15:05:52.21,IMU,-28.32,-18.07,-1015.63,0.63,2.31,0.56,-51.00,16.65,16.20,27.6
2026/04/13 15:05:52.31,IMU,-22.95,-20.51,-1017.09,-0.74,1.38,2.11,-52.95,16.95,15.15,27.3
2026/04/13 15:05:52.41,IMU,-23.44,-22.95,-1006.35,0.18,-0.74,0.04,-53.25,16.20,17.25,27.6
2026/04/13 15:05:52.51,IMU,-20.02,-16.11,-1013.67,0.16,-0.27,0.05,-52.50,16.20,15.15,27.5
2026/04/13 15:05:52.61,IMU,-29.30,-32.71,-1005.86,0.85,1.73,-0.69,-51.75,16.95,17.55,27.6
2026/04/13 15:05:52.71,IMU,-20.51,-21.00,-1011.23,0.98,0.53,0.44,-52.20,16.95,16.50,27.6
2026/04/13 15:05:52.81,IMU,-30.27,-28.32,-1009.77,-1.20,0.46,0.60,-52.50,16.20,14.70,27.6
2026/04/13 15:05:52.91,IMU,-21.00,-24.41,-1018.55,1.00,1.20,1.80,-53.10,16.80,16.05,27.3
2026/04/13 15:05:53.01,IMU,-15.63,-15.63,-1017.09,-0.69,0.93,-0.37,-52.20,15.90,16.20,27.5
2026/04/13 15:05:53.11,IMU,-38.57,-29.30,-1014.16,0.01,0.58,-0.26,-52.35,16.50,17.85,27.5
2026/04/13 15:05:53.21,IMU,-21.48,-18.55,-1026.37,1.30,-0.12,-1.27,-52.50,16.65,16.50,27.6
2026/04/13 15:05:53.31,IMU,-23.93,-27.34,-1019.04,1.39,0.86,0.05,-52.05,17.25,16.05,27.5
2026/04/13 15:05:53.41,IMU,-21.97,-19.53,-1021.97,1.50,-0.21,-0.71,-52.20,16.95,16.50,27.6
2026/04/13 15:05:53.51,IMU,-25.88,-20.51,-1018.07,1.39,-0.27,-1.60,-53.10,15.75,17.40,27.7
2026/04/13 15:05:53.61,IMU,-28.81,-15.63,-1033.69,0.40,-0.39,0.60,-52.35,16.05,17.40,27.3
2026/04/13 15:05:53.71,IMU,-30.27,-22.95,-1020.02,-0.60,1.03,0.76,-52.20,16.20,16.20,27.6
2026/04/13 15:05:53.81,IMU,-36.13,-19.04,-1018.55,0.34,-1.69,-0.48,-53.70,15.90,18.00,27.6
2026/04/13 15:05:53.91,IMU,-17.09,-23.93,-1025.88,-1.74,-0.38,1.02,-54.00,16.95,16.95,27.6
2026/04/13 15:05:54.02,IMU,-35.64,-13.67,-1014.65,-0.47,0.31,-0.81,-53.85,17.25,17.10,27.3
2026/04/13 15:05:54.12,IMU,-24.90,-28.32,-1006.35,0.55,-0.71,-2.64,-54.00,16.65,18.30,27.6
2026/04/13 15:05:54.22,IMU,-18.07,-24.90,-1017.09,-0.10,0.34,0.21,-54.60,14.85,19.20,27.3
2026/04/13 15:05:54.32,IMU,-23.93,-26.37,-1016.11,0.23,0.87,0.81,-53.85,15.75,17.85,27.6
2026/04/13 15:05:54.42,IMU,-19.04,-16.60,-1003.42,1.61,-1.11,0.98,-52.05,16.80,17.40,27.7
2026/04/13 15:05:54.52,IMU,-20.02,-15.63,-1022.46,-0.21,0.31,0.47,-53.40,17.55,17.40,27.5
2026/04/13 15:05:54.62,IMU,-23.44,-21.48,-1004.88,1.03,0.08,-1.47,-53.25,15.90,18.00,27.6
2026/04/13 15:05:54.72,IMU,-20.02,-10.25,-1013.18,0.07,-0.56,-1.24,-52.50,17.40,17.25,27.5
2026/04/13 15:05:54.82,IMU,-23.93,-22.46,-1014.65,2.83,-1.28,-0.78,-53.70,16.20,17.25,27.6
2026/04/13 15:05:54.92,IMU,-33.69,-22.46,-1011.23,-0.65,-0.05,-0.79,-52.20,16.20,18.00,27.6
2026/04/13 15:05:55.02,IMU,-14.65,-24.90,-1020.51,-1.95,-1.04,0.18,-53.10,16.05,17.85,27.7
2026/04/13 15:05:55.12,IMU,-13.67,-18.55,-1026.86,1.33,-2.27,-0.37,-52.95,16.65,15.75,27.3
2026/04/13 15:05:55.22,IMU,-29.30,-33.20,-1018.07,-0.51,-1.83,-1.18,-54.90,15.30,20.25,27.6
2026/04/13 15:05:55.32,IMU,-29.30,-20.02,-1019.53,-0.15,1.18,-0.31,-53.25,16.95,16.95,27.5
2026/04/13 15:05:55.42,IMU,-38.57,-12.70,-1014.16,0.37,1.11,-2.54,-53.40,16.80,17.10,27.6
2026/04/13 15:05:55.52,IMU,-11.23,-6.35,-1014.16,-0.50,-1.02,0.50,-52.50,16.20,15.45,27.6
2026/04/13 15:05:55.62,IMU,-23.44,-15.14,-1022.95,1.44,2.83,-1.66,-53.10,16.05,16.35,27.5
2026/04/13 15:05:55.72,IMU,-25.39,-25.88,-1037.60,0.50,0.95,0.66,-53.40,17.25,16.05,27.5
2026/04/13 15:05:55.82,IMU,-29.30,-18.55,-1017.58,-0.08,2.09,2.28,-52.80,16.50,16.65,27.6
2026/04/13 15:05:55.92,IMU,-33.69,-28.32,-1023.44,1.82,0.65,0.27,-52.50,16.20,19.05,27.6
2026/04/13 15:05:56.02,IMU,-18.07,-22.95,-1022.46,0.54,-0.10,2.14,-53.10,15.75,17.10,27.3
2026/04/13 15:05:56.12,IMU,-12.70,-21.97,-1024.41,-0.53,2.98,0.73,-54.60,16.50,16.05,27.6
2026/04/13 15:05:56.22,IMU,-26.86,-18.07,-1016.11,-1.47,0.81,0.25,-52.05,16.80,16.05,27.6
2026/04/13 15:05:56.32,IMU,-28.81,-21.48,-1019.53,1.15,0.50,-2.20,-53.40,17.25,16.65,27.6
2026/04/13 15:05:56.42,IMU,-24.90,-25.88,-1017.09,0.50,-0.25,2.07,-52.80,16.50,17.10,27.6
2026/04/13 15:05:56.52,IMU,-25.88,-12.70,-1005.86,-0.31,2.61,0.44,-52.95,15.90,16.50,27.6
2026/04/13 15:05:56.62,IMU,-16.11,-16.60,-1003.42,0.50,0.71,0.95,-53.70,17.40,17.55,27.6
2026/04/13 15:05:56.72,IMU,-27.83,-27.34,-1018.07,0.00,0.21,0.47,-52.50,16.95,16.50,27.5
2026/04/13 15:05:56.82,IMU,-20.51,-16.11,-1017.58,0.74,0.48,1.93,-54.00,17.70,16.50,27.5
2026/04/13 15:05:56.92,IMU,-9.28,-17.09,-1002.44,-1.54,0.64,-4.75,-52.95,15.90,17.25,27.7
2026/04/13 15:05:57.03,IMU,-23.93,-13.18,-1006.84,2.14,-2.40,0.43,-52.80,16.80,15.60,27.7
2026/04/13 15:05:57.13,IMU,-12.70,-10.74,-1013.18,0.13,2.92,2.63,-53.10,18.75,16.35,27.5
2026/04/13 15:05:57.23,IMU,-21.97,-6.84,-1007.32,-1.11,-0.39,-0.62,-55.80,18.15,15.45,27.5
2026/04/13 15:05:57.33,IMU,-28.32,-15.14,-1017.58,0.07,-1.44,-1.99,-53.25,17.40,15.75,27.6
2026/04/13 15:05:57.43,IMU,-5.37,-12.21,-1013.18,1.68,2.05,-0.37,-52.80,17.55,15.60,27.6
2026/04/13 15:05:57.53,IMU,-21.48,-30.27,-1007.32,-0.85,-0.64,1.44,-52.35,16.50,14.85,27.3
2026/04/13 15:05:57.63,IMU,-20.51,-27.83,-1001.46,-1.47,-0.21,-1.59,-53.85,16.05,14.25,27.5
2026/04/13 15:05:57.73,IMU,-30.76,-23.93,-1025.39,1.76,2.26,-1.22,-52.50,16.65,13.95,27.6
2026/04/13 15:05:57.83,IMU,-27.83,-25.39,-1013.67,-0.53,0.89,1.62,-53.25,16.95,15.45,27.8
2026/04/13 15:05:57.93,IMU,-21.48,-21.48,-1019.53,0.61,1.07,1.24,-52.95,16.95,13.65,27.4
2026/04/13 15:05:58.03,IMU,-27.83,-22.95,-1017.58,1.56,-0.23,-0.02,-53.25,16.20,15.15,27.5
2026/04/13 15:05:58.13,IMU,-30.27,-21.00,-1014.65,3.14,-0.35,0.62,-53.25,15.90,14.70,27.5
2026/04/13 15:05:58.23,IMU,-23.93,-23.93,-1014.16,-0.94,-0.04,1.00,-52.20,16.65,15.15,27.9
2026/04/13 15:05:58.34,IMU,-32.71,-21.97,-1018.07,0.66,-1.85,2.69,-52.20,15.90,14.70,27.5
2026/04/13 15:05:58.44,IMU,-19.04,-21.48,-1021.97,1.24,0.84,0.91,-53.10,18.00,15.30,27.6
2026/04/13 15:05:58.54,IMU,-25.88,-21.48,-1024.90,0.12,0.08,1.18,-54.00,17.70,15.15,27.5
2026/04/13 15:05:58.64,IMU,-18.55,-18.07,-1010.25,2.44,1.39,-1.76,-52.50,15.45,15.15,27.3
2026/04/13 15:05:58.74,IMU,-19.04,-20.02,-1015.63,0.60,0.28,0.61,-52.80,15.30,14.55,27.8
2026/04/13 15:05:58.84,IMU,-34.67,-21.00,-1013.67,0.08,1.22,-1.37,-52.20,16.20,15.45,27.3
2026/04/13 15:05:58.94,IMU,-23.44,-31.25,-1016.60,-2.49,1.31,-1.44,-52.05,18.00,14.85,27.8
2026/04/13 15:05:59.04,IMU,-23.93,-11.72,-1020.02,0.45,3.11,0.48,-52.80,16.50,14.55,27.6
2026/04/13 15:05:59.14,IMU,-29.79,-31.74,-1012.21,1.36,0.26,1.90,-51.30,17.25,14.55,27.6
2026/04/13 15:05:59.24,IMU,-19.53,-15.63,-1019.53,-1.52,2.02,1.76,-53.70,16.20,15.45,27.5
2026/04/13 15:05:59.34,IMU,-24.90,-24.41,-1000.98,0.43,2.21,-0.44,-53.40,15.30,14.85,27.6
2026/04/13 15:05:59.44,IMU,-26.37,-7.81,-1007.32,1.34,1.40,2.35,-54.00,16.65,13.95,27.6
2026/04/13 15:05:59.54,IMU,-24.90,-5.86,-1016.11,1.83,-0.27,-0.45,-52.95,16.65,16.20,27.6
2026/04/13 15:05:59.64,IMU,-27.83,-21.00,-1004.39,1.05,-0.24,1.27,-53.70,15.90,13.95,27.5
2026/04/13 15:05:59.74,IMU,-17.58,-23.93,-1001.46,-1.04,-0.21,-0.97,-52.20,15.90,13.65,27.6
2026/04/13 15:05:59.84,IMU,-26.37,-42.48,-1025.39,-1.33,1.39,-1.52,-52.35,17.25,14.85,27.6
2026/04/13 15:05:59.94,IMU,-18.55,-26.86,-1017.09,0.05,-0.75,-1.57,-52.20,16.95,15.45,27.5
2026/04/13 15:06:00.04,IMU,-22.95,-5.37,-1017.09,0.43,0.11,1.95,-53.40,14.85,14.55,27.6
2026/04/13 15:06:00.14,IMU,-16.11,-21.48,-1030.27,0.11,0.09,-1.18,-52.80,16.05,14.85,27.9
2026/04/13 15:06:00.24,IMU,-18.55,-23.93,-1018.07,-0.21,-0.05,-2.51,-52.20,16.95,16.20,27.6
2026/04/13 15:06:00.34,IMU,-21.48,-24.41,-1031.25,-1.09,0.13,-1.99,-52.80,16.80,14.25,27.6
2026/04/13 15:06:00.44,IMU,-25.39,-28.81,-1018.55,-0.36,-0.43,2.07,-54.15,15.75,15.30,27.6
2026/04/13 15:06:00.54,IMU,-28.32,-19.53,-1034.18,-0.76,1.47,-0.76,-53.10,16.05,14.25,27.6
2026/04/13 15:06:00.64,IMU,-34.18,-9.77,-1019.04,0.88,-1.08,-0.61,-53.40,16.80,14.25,27.5
2026/04/13 15:06:00.74,IMU,-22.46,-25.39,-1007.81,0.57,1.38,-0.70,-52.05,17.55,14.85,27.8
2026/04/13 15:06:00.84,IMU,-26.86,-24.41,-1017.09,2.18,0.58,-3.06,-52.35,17.55,14.25,27.8
2026/04/13 15:06:00.94,IMU,-24.90,-21.97,-1026.37,0.60,0.99,-1.79,-53.10,16.50,13.80,27.5
2026/04/13 15:06:01.04,IMU,-23.44,-17.09,-1022.46,0.68,1.08,1.27,-53.85,17.25,15.30,27.6
2026/04/13 15:06:01.14,IMU,-23.44,-29.79,-1016.60,0.04,0.21,1.51,-52.95,16.65,12.90,27.5
2026/04/13 15:06:01.25,IMU,-8.79,-19.04,-1011.23,-0.38,0.59,0.44,-52.05,17.25,14.85,27.6
2026/04/13 15:06:01.35,IMU,-19.53,-22.95,-1018.07,-1.08,-1.34,3.36,-53.25,17.70,14.40,27.6
2026/04/13 15:06:01.45,IMU,-22.95,-19.53,-1021.48,0.82,2.37,-0.95,-53.10,18.00,14.85,27.6
2026/04/13 15:06:01.55,IMU,-27.34,-17.09,-1008.79,-1.69,0.33,3.32,-53.25,16.65,13.95,27.6
2026/04/13 15:06:01.65,IMU,-34.18,-19.53,-1017.58,1.26,-0.82,-1.13,-53.25,17.70,14.40,27.5
2026/04/13 15:06:01.75,IMU,-19.04,-24.90,-1012.21,-0.46,0.63,-1.80,-52.50,16.95,15.15,27.5
2026/04/13 15:06:01.85,IMU,-12.21,-30.27,-1010.25,-0.06,-1.00,0.27,-53.25,15.90,15.15,27.6
2026/04/13 15:06:01.95,IMU,-21.00,-15.14,-1001.46,0.89,0.86,-2.14,-52.50,16.20,13.65,27.8
2026/04/13 15:06:02.05,IMU,-25.88,-31.25,-1011.72,1.14,0.82,0.97,-53.25,15.90,15.15,27.4
2026/04/13 15:06:02.15,IMU,-18.07,-17.09,-1010.74,0.75,-0.02,1.16,-53.10,17.55,13.50,27.5
2026/04/13 15:06:02.25,IMU,-36.13,-27.83,-1006.35,0.62,0.69,-2.80,-53.10,17.25,13.50,27.3
2026/04/13 15:06:02.35,IMU,-25.88,-6.84,-992.68,-1.72,-1.00,2.21,-52.80,17.25,13.05,27.5
2026/04/13 15:06:02.45,IMU,-19.53,-18.07,-1014.65,-0.68,-0.82,0.69,-52.95,16.20,14.70,27.6
2026/04/13 15:06:02.55,IMU,-33.69,-28.32,-1010.25,-0.53,0.61,-0.56,-51.75,16.95,14.70,27.6
2026/04/13 15:06:02.65,IMU,-29.30,-17.09,-999.02,1.76,0.62,-1.18,-52.80,17.55,14.55,27.5
2026/04/13 15:06:02.75,IMU,-22.46,-20.51,-1008.30,0.88,-0.21,-1.05,-53.10,16.05,13.80,27.5
2026/04/13 15:06:02.85,IMU,-26.37,-20.51,-1017.09,-1.74,0.12,2.59,-52.50,16.65,15.15,27.5
2026/04/13 15:06:02.95,IMU,-31.25,-22.46,-1021.97,-0.58,-1.01,-1.33,-52.05,18.00,15.30,27.7
2026/04/13 15:06:03.05,IMU,-20.51,-19.53,-1030.76,1.12,0.60,0.60,-53.40,16.50,13.50,27.6
2026/04/13 15:06:03.15,IMU,-21.48,-18.55,-1021.00,-0.22,1.30,-1.19,-53.10,17.25,13.50,27.7
2026/04/13 15:06:03.25,IMU,-23.93,-25.88,-1016.11,0.00,1.61,-3.43,-52.80,16.05,14.25,27.8
2026/04/13 15:06:03.35,IMU,-22.46,-18.55,-1011.23,1.04,0.13,-0.31,-53.70,15.45,15.15,27.6
2026/04/13 15:06:03.45,IMU,-29.30,-22.95,-1034.18,3.21,-1.55,0.60,-53.70,17.70,14.40,27.8
2026/04/13 15:06:03.55,IMU,-29.30,-21.97,-1034.18,-0.12,2.98,0.90,-52.80,16.50,14.55,27.7
2026/04/13 15:06:03.65,IMU,-17.58,-13.18,-1007.81,0.50,0.25,0.11,-53.25,15.45,14.40,27.5
2026/04/13 15:06:03.75,IMU,-26.37,-20.51,-1012.21,-1.02,-0.44,-1.40,-53.25,15.90,14.40,27.6
2026/04/13 15:06:03.85,IMU,-30.27,-33.20,-1023.93,0.78,0.38,-0.86,-52.50,16.20,13.35,27.9
2026/04/13 15:06:03.95,IMU,-28.32,-16.60,-1016.60,-0.46,-0.08,-0.73,-53.10,16.80,14.55,27.3
2026/04/13 15:06:04.05,IMU,-20.02,-17.09,-1014.16,-1.33,0.71,-1.63,-53.10,15.75,15.60,27.5
2026/04/13 15:06:04.15,IMU,-22.46,-5.86,-1010.25,-0.22,0.92,-1.46,-52.95,15.90,14.70,27.6
2026/04/13 15:06:04.26,IMU,-38.57,-17.58,-1009.28,-0.51,0.64,2.50,-53.85,16.05,15.30,27.6
2026/04/13 15:06:04.36,IMU,-33.69,-21.00,-1002.44,-0.05,-0.24,1.79,-55.35,15.30,18.15,27.6
2026/04/13 15:06:04.46,IMU,-27.83,-18.07,-1003.42,-2.08,1.60,-1.29,-52.50,16.20,14.70,27.8
2026/04/13 15:06:04.56,IMU,-25.88,-17.58,-997.07,0.05,1.56,-1.08,-52.35,16.05,12.75,27.5
2026/04/13 15:06:04.66,IMU,-20.51,-21.48,-1023.44,1.32,0.58,1.39,-53.25,16.20,14.40,27.6
2026/04/13 15:06:04.76,IMU,-19.04,-15.14,-1017.09,0.32,0.25,-1.37,-53.25,16.95,14.70,27.5
2026/04/13 15:06:04.86,IMU,-29.79,-0.49,-1010.74,1.31,0.11,1.95,-54.45,16.20,14.40,27.8
2026/04/13 15:06:04.96,IMU,-11.23,-15.63,-1003.91,-0.21,-1.05,1.16,-53.40,16.50,14.25,27.6
2026/04/13 15:06:05.06,IMU,-23.93,-41.02,-1014.16,-0.39,1.02,-0.14,-53.25,16.95,13.65,27.7
2026/04/13 15:06:05.16,IMU,-10.74,-8.30,-1015.14,1.03,2.02,0.56,-52.80,16.05,14.55,27.6
2026/04/13 15:06:05.26,IMU,-31.25,-23.93,-1010.74,-0.41,1.31,-0.13,-53.85,16.50,15.30,27.6
2026/04/13 15:06:05.36,IMU,-13.18,-21.00,-1006.84,0.98,1.47,2.85,-56.55,14.70,19.35,27.5
2026/04/13 15:06:05.46,IMU,-24.90,-16.60,-1017.58,0.67,0.68,2.20,-52.80,17.25,14.55,27.9
2026/04/13 15:06:05.56,IMU,-34.18,-19.04,-1015.14,0.15,1.63,0.30,-54.15,16.05,14.55,27.8
2026/04/13 15:06:05.66,IMU,-22.95,-15.14,-1020.02,-0.37,0.32,2.08,-52.80,16.80,14.85,27.5
2026/04/13 15:06:05.76,IMU,-34.18,-21.97,-1020.02,-0.39,1.82,-0.23,-52.05,17.25,14.55,27.6
2026/04/13 15:06:05.86,IMU,-23.93,-27.34,-1011.23,-2.71,0.31,-2.17,-54.00,16.65,15.45,27.6
2026/04/13 15:06:05.96,IMU,-10.74,-19.04,-1033.69,-0.49,0.58,-0.47,-53.10,16.05,14.85,27.8
2026/04/13 15:06:06.06,IMU,-32.71,-13.67,-1015.63,-0.40,0.24,2.65,-52.80,16.50,14.55,27.5
2026/04/13 15:06:06.16,IMU,-13.67,-19.04,-1011.23,-0.16,-0.65,2.47,-51.60,16.05,16.35,27.6
2026/04/13 15:06:06.26,IMU,-9.77,-8.30,-999.51,0.99,0.18,0.92,-51.60,16.80,13.80,27.5
2026/04/13 15:06:06.37,IMU,-30.76,-20.02,-1014.65,0.50,0.81,0.89,-55.65,15.30,20.25,27.5
2026/04/13 15:06:06.47,IMU,-25.88,-11.72,-1021.97,-0.94,0.47,-0.08,-53.25,16.95,14.70,27.8
2026/04/13 15:06:06.57,IMU,-13.67,-29.79,-1021.97,-1.73,0.95,2.05,-52.35,16.05,13.80,27.8
2026/04/13 15:06:06.67,IMU,-13.18,-18.55,-1010.74,1.67,0.66,1.62,-52.95,16.20,15.45,27.6
2026/04/13 15:06:06.77,IMU,-47.36,-24.90,-1021.00,1.08,-2.71,1.02,-53.25,15.90,14.40,27.7
2026/04/13 15:06:06.87,IMU,-26.86,-17.58,-1022.46,-0.40,0.90,1.26,-53.40,16.05,13.80,27.6
2026/04/13 15:06:06.97,IMU,-21.48,-24.90,-1009.77,0.85,-0.63,1.27,-53.10,16.05,15.60,27.6
2026/04/13 15:06:07.07,IMU,-31.74,-23.44,-1006.84,0.46,-0.86,1.29,-51.60,16.05,14.85,27.3
2026/04/13 15:06:07.18,IMU,-13.67,-18.07,-1013.18,0.07,2.40,1.08,-53.10,16.80,14.55,28.0
2026/04/13 15:06:07.28,IMU,-29.30,-18.07,-1012.70,-0.86,-1.20,0.89,-53.40,16.80,13.80,27.5
2026/04/13 15:06:07.38,IMU,-21.97,-29.79,-1008.79,1.18,-1.25,-0.94,-53.25,16.65,14.40,27.8
2026/04/13 15:06:07.48,IMU,-25.88,-22.46,-1026.86,0.35,0.82,-2.77,-53.25,15.45,13.95,27.7
2026/04/13 15:06:07.58,IMU,-27.34,-18.07,-1017.58,-0.14,-0.72,-0.82,-53.10,15.75,15.30,27.7
2026/04/13 15:06:07.68,IMU,-24.41,-24.41,-1000.00,0.19,-0.47,-1.83,-54.15,18.00,16.05,27.7
2026/04/13 15:06:07.78,IMU,-24.41,-10.74,-1021.00,0.07,0.37,0.46,-52.35,16.80,14.55,27.6
2026/04/13 15:06:07.88,IMU,-15.63,-23.93,-1021.00,2.40,1.40,-1.34,-52.20,15.15,15.15,27.7
2026/04/13 15:06:07.98,IMU,-25.88,-29.79,-1022.46,-1.28,0.45,0.80,-51.60,16.50,14.85,27.8
2026/04/13 15:06:08.08,IMU,-20.02,-16.60,-1016.11,-0.60,-0.40,1.56,-52.50,17.70,15.45,27.6
2026/04/13 15:06:08.18,IMU,-26.86,-17.58,-1023.44,0.08,-1.31,-2.31,-52.95,16.95,15.45,27.6
2026/04/13 15:06:08.28,IMU,-27.34,-14.65,-1011.23,1.21,1.93,1.22,-53.10,18.00,14.85,27.7
2026/04/13 15:06:08.38,IMU,-26.86,-23.93,-1000.98,0.24,0.06,-2.21,-53.70,17.40,13.65,27.8
2026/04/13 15:06:08.48,IMU,-26.86,-15.63,-1012.21,1.21,1.76,-0.19,-51.60,17.55,15.60,27.5
2026/04/13 15:06:08.58,IMU,-28.81,-29.30,-1014.65,-1.82,0.52,1.53,-52.05,16.80,14.85,27.7
2026/04/13 15:06:08.68,IMU,-25.88,-13.18,-993.65,-0.02,1.17,-0.11,-51.60,15.75,13.80,27.7
2026/04/13 15:06:08.78,IMU,-29.79,-24.41,-1011.23,-0.95,1.66,-0.95,-51.30,15.30,14.55,27.5
2026/04/13 15:06:08.88,IMU,-28.81,-31.25,-1016.11,-0.76,0.84,0.25,-51.60,16.80,13.80,27.9
2026/04/13 15:06:08.98,IMU,-23.93,-14.16,-1002.93,-0.20,0.31,0.08,-53.70,16.65,14.40,27.6
2026/04/13 15:06:09.08,IMU,-18.55,-21.48,-1004.88,-0.39,0.32,0.92,-52.05,16.80,14.55,27.6
2026/04/13 15:06:09.18,IMU,-33.20,-22.46,-1004.88,0.75,3.10,-0.73,-53.25,17.40,15.45,27.6
2026/04/13 15:06:09.28,IMU,-14.65,-17.58,-1011.23,0.47,-1.21,0.51,-53.25,16.65,13.95,27.7
2026/04/13 15:06:09.38,IMU,-29.30,-20.02,-1000.98,0.49,-0.71,3.98,-52.20,16.20,13.65,27.6
2026/04/13 15:06:09.48,IMU,-31.74,-14.16,-1010.74,-1.58,1.02,-0.97,-53.25,16.20,13.95,27.7
2026/04/13 15:06:09.58,IMU,-35.64,-22.46,-1022.95,-0.37,-0.56,-1.67,-52.95,16.65,15.45,27.8
2026/04/13 15:06:09.68,IMU,-28.81,-22.95,-1019.53,1.66,-0.77,0.49,-53.70,17.70,13.65,27.5
2026/04/13 15:06:09.78,IMU,-28.32,-12.21,-1030.27,-2.28,1.15,-1.20,-52.80,17.25,13.80,27.5
2026/04/13 15:06:09.88,IMU,-24.90,-14.65,-1020.51,-0.53,-0.04,-3.04,-53.70,16.95,14.40,27.9
2026/04/13 15:06:09.98,IMU,-23.93,-17.09,-1021.48,-1.23,-1.31,-0.91,-54.00,15.90,15.15,27.8
2026/04/13 15:06:10.09,IMU,-32.23,-18.55,-1013.18,0.03,-0.29,0.53,-52.20,16.95,13.35,27.7
2026/04/13 15:06:10.19,IMU,-28.32,-28.32,-1015.63,-1.53,1.56,2.14,-52.20,18.60,15.15,27.6
2026/04/13 15:06:10.29,IMU,-23.93,-30.27,-1018.55,1.16,-0.20,0.43,-54.15,17.25,14.85,27.8
2026/04/13 15:06:10.39,IMU,-21.00,-29.30,-1016.11,-0.18,0.69,-3.50,-52.95,16.65,14.70,27.6
2026/04/13 15:06:10.49,IMU,-23.93,-29.79,-1019.04,0.50,1.14,0.58,-52.80,17.55,13.80,27.6
2026/04/13 15:06:10.59,IMU,-31.74,-12.21,-1011.72,-0.24,0.45,1.49,-53.25,16.65,13.65,27.5
2026/04/13 15:06:10.69,IMU,-25.39,-44.92,-1011.23,1.31,-0.76,-1.14,-52.20,16.65,14.40,27.7
2026/04/13 15:06:10.79,IMU,-17.58,-26.86,-1003.42,-0.06,1.74,1.08,-52.80,16.80,15.30,27.8
2026/04/13 15:06:10.89,IMU,-28.32,-29.30,-1012.70,-0.50,1.43,0.25,-54.45,17.70,15.45,27.6
2026/04/13 15:06:10.99,IMU,-26.86,-6.84,-1016.60,-1.88,0.73,-1.49,-52.05,16.50,14.55,27.9
2026/04/13 15:06:11.09,IMU,-26.37,-21.97,-1010.74,-1.05,-0.53,-0.22,-53.70,16.65,14.70,27.5
2026/04/13 15:06:11.19,IMU,-31.25,-37.11,-1013.67,-0.70,1.60,-0.73,-52.95,17.40,15.15,28.0
2026/04/13 15:06:11.29,IMU,-33.20,-27.83,-1010.25,-1.81,1.08,-2.29,-53.40,18.00,14.55,27.6
2026/04/13 15:06:11.39,IMU,-25.39,-24.41,-1015.14,1.24,0.80,1.60,-52.80,15.75,15.60,27.6
2026/04/13 15:06:11.49,IMU,-17.58,-24.41,-1006.35,-0.35,0.19,-0.39,-52.20,16.65,13.95,28.0
2026/04/13 15:06:11.59,IMU,-20.02,-23.44,-1008.30,-0.87,-1.74,0.80,-52.50,16.20,13.95,27.5
2026/04/13 15:06:11.69,IMU,-31.25,-10.74,-1015.14,0.58,-0.92,0.48,-52.20,16.65,13.65,27.5
2026/04/13 15:06:11.79,IMU,-14.16,-13.18,-1006.84,-0.93,1.35,1.73,-52.50,15.90,13.65,27.8
2026/04/13 15:06:11.89,IMU,-30.76,-24.41,-1008.79,-1.05,0.23,-3.44,-52.80,16.80,14.25,27.6
2026/04/13 15:06:11.99,IMU,-20.02,-10.25,-1009.77,-0.64,-0.34,-1.01,-53.85,16.80,14.85,27.7
2026/04/13 15:06:12.09,IMU,-26.37,-18.07,-1019.04,-0.32,-0.97,-0.07,-52.95,16.20,15.15,27.5
2026/04/13 15:06:12.19,IMU,-21.48,-25.39,-1018.07,1.40,-0.79,1.78,-53.10,17.25,15.60,27.9
2026/04/13 15:06:12.29,IMU,-32.71,-32.23,-1026.37,1.12,1.25,-0.95,-52.80,16.80,13.80,27.6
2026/04/13 15:06:12.39,IMU,-17.58,-21.00,-1021.97,-0.82,0.37,-1.04,-52.80,16.50,15.30,27.8
2026/04/13 15:06:12.49,IMU,-35.64,-20.51,-1008.30,-1.27,1.40,-0.75,-53.85,15.75,17.85,27.5
2026/04/13 15:06:12.59,IMU,-10.25,-26.86,-1025.39,0.37,-1.89,1.77,-52.05,16.80,14.85,27.6
2026/04/13 15:06:12.69,IMU,-21.97,-19.04,-1016.60,-1.40,1.51,0.47,-52.05,16.80,15.60,27.6
2026/04/13 15:06:12.79,IMU,-11.72,-31.25,-1015.63,-0.49,0.37,0.53,-53.10,16.05,14.85,27.8
2026/04/13 15:06:12.89,IMU,-25.88,-16.60,-1017.58,-0.13,0.40,-0.12,-52.80,14.85,13.80,27.5
2026/04/13 15:06:12.99,IMU,-19.53,-17.09,-1022.95,-0.89,1.23,2.75,-52.35,14.55,14.55,27.7
