Timestamp,Sensor,AccX,AccY,AccZ,GyrX,GyrY,GyrZ,MagX,MagY,MagZ,Temp
2026/04/13 15:03:58.00,IMU,-64.94,-12.21,-1011.23,-1.30,0.82,-1.02,13.65,35.85,34.80,26.7
2026/04/13 15:03:58.10,IMU,-44.92,-3.42,-1007.81,0.05,-0.83,-1.44,12.45,36.00,34.95,26.6
2026/04/13 15:03:58.20,IMU,-43.95,8.30,-1026.86,0.75,-0.05,0.74,13.35,34.35,36.15,26.4
2026/04/13 15:03:58.30,IMU,-45.90,1.46,-1024.90,-0.84,2.20,2.36,14.70,37.20,36.00,26.6
2026/04/13 15:03:58.40,IMU,-41.99,0.00,-1006.84,0.48,0.74,0.34,13.50,35.55,34.65,26.9
2026/04/13 15:03:58.50,IMU,-47.85,7.81,-1008.79,1.11,2.25,0.73,13.50,36.45,35.25,26.8
2026/04/13 15:03:58.60,IMU,-33.69,5.37,-1004.39,0.12,0.95,3.02,13.65,36.60,34.80,26.8
2026/04/13 15:03:58.70,IMU,-58.11,-4.88,-1010.74,2.05,2.98,0.95,13.65,35.40,34.80,26.7
2026/04/13 15:03:58.80,IMU,-47.36,-10.74,-1015.63,-0.49,0.92,1.33,15.15,36.60,36.15,26.9
2026/04/13 15:03:58.90,IMU,-39.55,0.49,-1014.65,-0.50,1.63,0.78,14.70,36.00,35.25,26.6
2026/04/13 15:03:59.00,IMU,-33.69,13.18,-1006.35,0.63,0.19,-1.49,14.70,36.75,34.65,26.8
2026/04/13 15:03:59.10,IMU,-40.53,-2.93,-1024.41,0.31,-0.51,0.82,14.70,36.00,35.70,26.6
2026/04/13 15:03:59.20,IMU,-46.39,-0.49,-1018.07,1.95,0.10,-0.69,12.60,36.15,35.55,26.8
2026/04/13 15:03:59.30,IMU,-44.92,-5.37,-1020.02,1.92,0.55,0.22,13.05,36.60,36.90,26.6
2026/04/13 15:03:59.40,IMU,-41.99,1.46,-1009.77,0.76,0.27,-0.87,12.45,36.75,35.25,26.6
2026/04/13 15:03:59.51,IMU,-43.46,10.25,-1006.35,-0.33,0.22,-0.11,14.10,36.15,33.60,26.7
2026/04/13 15:03:59.61,IMU,-43.46,2.44,-1021.00,-0.02,-0.29,1.89,14.25,36.00,33.90,26.5
2026/04/13 15:03:59.71,IMU,-47.85,0.00,-1013.18,-1.98,0.44,-1.35,13.05,36.60,35.55,26.5
2026/04/13 15:03:59.81,IMU,-44.92,-5.86,-1021.48,-0.47,3.81,0.44,13.05,35.40,35.10,26.5
2026/04/13 15:03:59.91,IMU,-44.92,-6.84,-997.56,0.37,1.50,2.28,13.35,36.15,34.35,26.5
2026/04/13 15:04:00.01,IMU,-42.48,5.37,-1010.25,0.38,-0.50,-0.17,13.95,35.55,34.20,26.8
2026/04/13 15:04:00.11,IMU,-47.85,-4.88,-1011.72,0.71,2.29,-0.59,12.60,36.90,34.05,26.5
2026/04/13 15:04:00.21,IMU,-51.27,-1.46,-1014.65,1.51,0.88,1.57,13.95,36.45,35.25,26.7
2026/04/13 15:04:00.31,IMU,-54.20,-4.88,-1011.72,-0.76,-0.24,-0.65,13.35,35.40,34.35,26.6
2026/04/13 15:04:00.41,IMU,-39.55,0.00,-1019.04,1.32,-2.47,-0.29,13.95,38.25,34.95,26.6
2026/04/13 15:04:00.51,IMU,-38.57,-6.35,-1015.63,0.34,0.15,0.57,13.65,36.60,34.80,26.7
2026/04/13 15:04:00.61,IMU,-48.83,4.39,-1019.04,1.00,-0.40,-2.68,14.10,35.85,35.10,26.8
2026/04/13 15:04:00.71,IMU,-34.67,-1.95,-1022.95,-0.86,-0.95,1.76,13.95,36.00,34.95,26.6
2026/04/13 15:04:00.81,IMU,-53.71,0.00,-1011.23,1.02,-0.06,0.63,13.05,36.15,35.85,26.7
2026/04/13 15:04:00.91,IMU,-40.53,-11.72,-1016.60,0.17,0.04,-0.63,13.20,35.55,35.70,26.4
2026/04/13 15:04:01.01,IMU,-29.79,0.49,-1010.25,-0.54,-0.25,1.08,13.95,36.75,33.90,26.7
2026/04/13 15:04:01.11,IMU,-25.39,-2.93,-1022.46,1.80,1.57,-3.98,13.65,35.85,34.80,26.7
2026/04/13 15:04:01.21,IMU,-43.95,-5.86,-1015.63,-0.88,1.92,0.32,14.70,37.20,34.95,26.7
2026/04/13 15:04:01.31,IMU,-34.18,-12.70,-1022.46,0.23,-0.51,2.40,13.20,36.45,34.20,26.7
2026/04/13 15:04:01.41,IMU,-37.11,-3.91,-1011.23,-1.94,1.63,-1.35,13.20,36.75,33.15,26.7
2026/04/13 15:04:01.51,IMU,-50.29,0.49,-1016.11,0.12,0.43,1.31,12.60,35.40,33.60,26.7
2026/04/13 15:04:01.61,IMU,-46.88,3.42,-1013.67,-1.53,-1.37,2.73,13.35,36.15,34.80,26.6
2026/04/13 15:04:01.71,IMU,-46.39,4.88,-1021.97,1.04,-0.54,1.92,13.35,36.60,33.30,26.7
2026/04/13 15:04:01.81,IMU,-33.69,-1.95,-1012.21,0.56,1.24,0.70,13.35,35.85,35.10,26.4
2026/04/13 15:04:01.91,IMU,-54.69,11.72,-1024.90,-1.48,1.38,4.18,12.75,36.45,35.70,26.5
2026/04/13 15:04:02.01,IMU,-39.06,-1.95,-1026.37,0.95,-1.23,-0.35,14.85,36.15,33.00,26.7
2026/04/13 15:04:02.11,IMU,-47.85,2.44,-1020.02,-1.24,1.51,-2.15,13.65,35.85,35.85,26.8
2026/04/13 15:04:02.21,IMU,-43.95,-2.44,-1020.02,0.83,0.11,1.97,13.65,35.85,34.80,26.7
2026/04/13 15:04:02.31,IMU,-51.76,12.21,-1016.60,1.05,-0.26,-0.87,14.85,37.35,34.80,26.2
2026/04/13 15:04:02.41,IMU,-37.11,-17.58,-1016.11,-0.10,-1.15,-2.53,15.45,36.00,35.25,26.7
2026/04/13 15:04:02.52,IMU,-36.62,-12.70,-1012.70,2.42,-0.69,3.17,13.95,35.55,35.25,26.6
2026/04/13 15:04:02.62,IMU,-39.55,0.98,-1021.48,-0.18,0.23,0.24,13.50,36.00,34.95,26.8
2026/04/13 15:04:02.72,IMU,-42.48,5.37,-1012.70,0.51,0.89,0.13,13.35,37.35,34.80,26.6
2026/04/13 15:04:02.82,IMU,-29.30,2.93,-1016.60,2.01,-0.79,-0.78,14.85,35.40,34.80,26.5
2026/04/13 15:04:02.92,IMU,-33.20,-0.98,-1011.23,1.51,2.41,0.44,13.65,36.15,35.55,26.8
2026/04/13 15:04:03.02,IMU,-42.97,-3.91,-1012.70,0.66,0.22,1.79,14.25,34.80,35.70,26.5
2026/04/13 15:04:03.12,IMU,-37.60,6.84,-1018.55,1.40,1.08,2.06,14.70,36.45,35.25,26.6
2026/04/13 15:04:03.22,IMU,-42.48,-10.25,-1009.77,-0.21,-0.53,-1.72,13.35,35.85,34.80,26.4
2026/04/13 15:04:03.32,IMU,-42.97,-2.44,-1009.77,-0.37,0.78,0.68,13.65,36.15,35.10,26.9
2026/04/13 15:04:03.42,IMU,-36.13,-0.49,-998.05,0.51,1.21,-2.14,14.25,36.00,34.95,26.7
2026/04/13 15:04:03.52,IMU,-45.41,9.28,-1017.09,-0.69,0.31,2.05,14.25,36.00,34.65,26.3
2026/04/13 15:04:03.62,IMU,-41.50,-15.63,-1018.07,-0.89,-0.96,0.90,13.95,35.55,35.25,26.7
2026/04/13 15:04:03.72,IMU,-36.13,-4.39,-994.14,0.92,1.12,-1.05,13.05,36.60,34.80,26.7
2026/04/13 15:04:03.82,IMU,-47.36,12.21,-1009.77,0.20,-0.82,-0.15,13.50,36.75,35.25,26.7
2026/04/13 15:04:03.92,IMU,-49.32,-6.35,-1014.65,1.30,1.31,-0.21,13.65,36.15,34.35,26.6
2026/04/13 15:04:04.03,IMU,-48.34,12.21,-1045.41,0.11,0.21,0.56,14.85,36.75,33.90,26.7
2026/04/13 15:04:04.13,IMU,-39.06,3.42,-1012.70,-0.71,0.25,-1.08,11.10,35.10,38.70,26.7
2026/04/13 15:04:04.23,IMU,-40.04,6.84,-1017.09,-0.59,0.37,1.07,14.70,36.45,34.65,26.8
2026/04/13 15:04:04.33,IMU,-46.88,14.16,-1010.74,-0.97,1.10,-1.11,13.05,36.90,35.10,26.7
2026/04/13 15:04:04.43,IMU,-40.04,-0.49,-1024.41,-0.89,1.89,-0.93,12.75,36.75,34.20,26.6
2026/04/13 15:04:04.53,IMU,-29.79,1.95,-1000.98,-0.51,-0.41,-0.60,13.20,35.25,33.90,26.7
2026/04/13 15:04:04.63,IMU,-49.32,-5.86,-1014.65,-0.27,-0.54,-1.95,13.65,36.60,34.35,26.6
2026/04/13 15:04:04.73,IMU,-31.74,11.72,-1020.51,0.48,0.63,1.16,13.35,36.60,35.10,26.7
2026/04/13 15:04:04.83,IMU,-43.95,-11.23,-1016.11,1.96,2.15,0.92,14.10,36.15,35.55,26.7
2026/04/13 15:04:04.93,IMU,-42.48,-15.63,-1004.39,0.11,-1.66,1.12,13.95,37.20,34.95,26.8
2026/04/13 15:04:05.03,IMU,-38.09,-6.35,-1010.74,-1.47,1.37,1.38,13.50,36.45,34.65,26.9
2026/04/13 15:04:05.13,IMU,-50.78,-1.46,-1029.30,-0.27,3.63,-1.15,11.10,35.40,40.95,26.8
2026/04/13 15:04:05.23,IMU,-40.53,-2.93,-1009.77,2.20,1.15,-1.11,14.85,36.60,34.80,26.7
2026/04/13 15:04:05.33,IMU,-36.13,-11.72,-1018.55,-0.11,0.04,1.77,13.50,37.20,35.70,26.6
2026/04/13 15:04:05.43,IMU,-41.99,-2.93,-1009.28,-0.33,0.08,-0.79,14.40,37.65,35.10,26.7
2026/04/13 15:04:05.53,IMU,-47.36,1.46,-1006.35,-1.04,0.79,2.36,13.05,35.40,36.15,26.6
2026/04/13 15:04:05.63,IMU,-45.90,7.32,-1012.70,0.47,0.26,-0.56,13.65,36.15,35.55,26.7
2026/04/13 15:04:05.73,IMU,-48.34,-12.70,-1019.04,-0.30,1.55,1.97,13.50,36.00,33.90,26.7
2026/04/13 15:04:05.83,IMU,-50.78,1.95,-1014.65,0.66,1.40,1.56,13.95,37.20,35.70,26.5
2026/04/13 15:04:05.93,IMU,-37.60,14.16,-1035.16,-0.77,-0.63,0.34,13.95,36.45,35.25,26.9
2026/04/13 15:04:06.03,IMU,-47.85,2.44,-1010.74,0.76,1.62,0.64,14.10,36.60,36.15,26.7
2026/04/13 15:04:06.14,IMU,-32.23,-10.74,-1008.30,-0.46,3.56,0.12,10.35,33.90,39.45,26.7
2026/04/13 15:04:06.24,IMU,-45.41,12.21,-1012.70,0.49,-1.85,-0.11,14.10,35.10,35.55,26.5
2026/04/13 15:04:06.34,IMU,-46.39,6.35,-1002.93,-1.98,1.13,0.09,13.95,36.00,34.20,26.7
2026/04/13 15:04:06.44,IMU,-44.43,-9.28,-1023.44,-0.15,4.05,1.15,13.65,36.60,36.15,26.5
2026/04/13 15:04:06.54,IMU,-55.18,-3.42,-1015.63,-0.42,-0.53,2.13,13.05,36.15,35.55,26.6
2026/04/13 15:04:06.64,IMU,-44.43,9.77,-1009.28,1.11,1.54,1.47,13.50,36.00,35.25,26.7
2026/04/13 15:04:06.74,IMU,-39.55,-0.98,-1032.71,-0.73,-0.36,-0.39,13.50,36.00,34.95,26.5
2026/04/13 15:04:06.84,IMU,-30.76,-8.79,-1006.35,0.78,-1.95,0.49,14.70,37.20,35.25,26.8
2026/04/13 15:04:06.94,IMU,-40.53,0.98,-995.61,-1.44,-0.81,-0.41,14.70,36.45,34.20,26.8
2026/04/13 15:04:07.04,IMU,-32.23,-9.77,-1021.48,-1.94,0.72,-0.11,15.00,36.75,34.95,27.0
2026/04/13 15:04:07.14,IMU,-37.11,-1.95,-1019.53,0.30,0.19,2.74,13.65,35.85,34.80,26.8
2026/04/13 15:04:07.24,IMU,-49.32,-5.37,-1016.60,1.24,2.40,0.31,13.95,35.55,34.95,26.7
2026/04/13 15:04:07.34,IMU,-38.57,3.91,-1011.72,-1.23,0.84,-2.08,13.65,35.40,34.80,26.8
2026/04/13 15:04:07.44,IMU,-42.48,-1.95,-1005.86,-1.21,-0.34,-1.22,13.65,36.15,35.85,26.8
2026/04/13 15:04:07.54,IMU,-48.34,-11.72,-1009.28,-0.89,-0.94,1.36,13.35,37.35,35.10,26.8
2026/04/13 15:04:07.64,IMU,-57.62,0.49,-1019.04,1.62,-2.16,-1.03,13.95,34.80,34.95,26.9
2026/04/13 15:04:07.74,IMU,-40.53,-11.23,-1010.25,2.02,-0.57,-1.04,14.40,36.90,34.35,26.8
2026/04/13 15:04:07.84,IMU,-44.43,3.91,-1021.97,-1.79,-0.95,0.73,14.10,36.60,35.10,26.9
2026/04/13 15:04:07.94,IMU,-41.02,15.63,-1009.77,-0.02,1.40,-1.35,14.25,37.20,34.20,26.4
2026/04/13 15:04:08.04,IMU,-44.92,2.93,-1024.41,0.51,1.21,-2.03,12.60,35.85,35.85,26.9
2026/04/13 15:04:08.14,IMU,-45.41,-11.23,-1028.32,-1.18,2.47,-1.05,13.95,36.45,34.20,26.6
2026/04/13 15:04:08.24,IMU,-35.16,9.28,-1009.77,-0.44,-0.50,-3.06,13.65,36.60,34.80,26.8
2026/04/13 15:04:08.34,IMU,-47.36,-4.39,-1012.21,0.82,0.77,-1.70,12.30,36.60,35.10,26.6
2026/04/13 15:04:08.44,IMU,-26.37,-0.98,-1014.16,-2.09,-1.14,-0.55,14.10,35.85,35.10,26.7
2026/04/13 15:04:08.55,IMU,-49.80,-8.79,-1015.63,0.03,-0.54,1.45,12.45,37.20,36.45,26.7
2026/04/13 15:04:08.65,IMU,-46.88,7.32,-1017.58,0.83,-1.57,2.65,14.10,35.85,35.55,26.5
2026/04/13 15:04:08.75,IMU,-30.27,-8.79,-1011.23,-1.13,-1.57,-0.34,14.25,37.20,35.70,26.8
2026/04/13 15:04:08.85,IMU,-40.53,6.35,-1006.84,0.87,0.53,-4.08,13.20,35.55,35.70,26.7
2026/04/13 15:04:08.95,IMU,-44.43,-1.46,-1005.86,-0.38,0.50,0.44,14.10,36.15,34.35,26.8
2026/04/13 15:04:09.05,IMU,-31.25,6.35,-1037.11,0.25,0.09,1.16,14.25,35.25,34.95,26.6
2026/04/13 15:04:09.15,IMU,-30.27,5.86,-1001.46,0.69,-3.67,2.89,13.65,36.15,36.15,26.7
2026/04/13 15:04:10.03,IMU,-48.83,5.86,-998.54,0.03,0.69,-1.40,13.50,35.55,34.65,27.0
2026/04/13 15:04:10.13,IMU,-46.39,2.44,-1018.07,1.21,-1.15,0.94,13.95,37.20,34.65,26.4
2026/04/13 15:04:10.23,IMU,-34.67,-3.91,-1018.07,-0.17,-0.37,0.37,12.60,35.85,35.55,26.7
2026/04/13 15:04:10.33,IMU,-62.50,-7.81,-1019.04,-0.24,0.21,-1.02,14.40,35.10,34.80,26.8
2026/04/13 15:04:10.43,IMU,-53.71,-0.49,-1018.55,1.80,0.60,-0.36,13.20,37.20,34.20,26.6
2026/04/13 15:04:10.53,IMU,-29.79,5.37,-1021.00,0.11,-0.19,1.95,13.65,36.60,34.80,26.9
2026/04/13 15:04:10.63,IMU,-40.53,1.46,-1015.14,-0.47,0.71,0.60,13.95,36.75,35.25,26.5
2026/04/13 15:04:10.73,IMU,-56.64,6.35,-1025.88,0.09,-0.45,1.97,12.75,35.25,34.65,26.8
2026/04/13 15:04:10.83,IMU,-29.30,0.49,-1018.07,1.11,3.07,-1.79,14.40,35.40,35.55,26.8
2026/04/13 15:04:10.93,IMU,-41.99,16.11,-1002.93,-1.00,0.27,0.44,13.65,36.90,35.10,26.8
2026/04/13 15:04:11.03,IMU,-45.41,9.77,-1014.16,1.89,-0.77,-2.51,14.40,36.15,34.05,26.9
2026/04/13 15:04:11.13,IMU,-29.79,2.44,-1020.51,-0.12,1.72,1.71,14.40,37.35,34.80,26.8
2026/04/13 15:04:11.23,IMU,-50.29,-9.28,-1006.35,0.26,0.12,-0.43,15.15,35.85,34.80,26.9
2026/04/13 15:04:11.33,IMU,-38.57,-11.23,-1016.11,0.44,0.68,0.08,14.25,36.45,35.70,26.9
2026/04/13 15:04:11.43,IMU,-47.36,8.79,-1023.44,0.52,1.61,-0.08,14.25,36.00,36.00,26.8
2026/04/13 15:04:11.53,IMU,-40.04,15.63,-1030.76,-0.51,0.56,0.82,14.25,36.45,34.95,26.8
2026/04/13 15:04:11.63,IMU,-21.48,-11.72,-1032.23,-0.87,0.97,-0.46,14.85,36.60,35.10,26.9
2026/04/13 15:04:11.74,IMU,-38.57,7.81,-1012.70,1.17,-0.40,-0.65,13.50,36.45,36.00,26.7
2026/04/13 15:04:11.84,IMU,-37.60,-1.46,-1009.77,0.78,1.14,-0.70,14.25,35.55,34.95,26.8
2026/04/13 15:04:11.94,IMU,-56.15,-13.67,-1011.23,0.04,0.22,-1.99,14.40,36.60,35.55,26.8
2026/04/13 15:04:12.04,IMU,-48.34,2.93,-1019.04,0.59,-1.21,-1.03,12.60,35.40,35.85,26.8
2026/04/13 15:04:12.14,IMU,-31.25,-7.32,-1008.30,0.60,0.23,-0.56,13.65,35.40,35.10,26.9
2026/04/13 15:04:12.24,IMU,-42.48,12.70,-1009.77,-1.18,-0.89,-2.52,9.45,33.75,38.85,26.7
2026/04/13 15:04:12.34,IMU,-47.36,-3.42,-1026.37,1.86,1.64,0.38,13.35,35.40,35.10,26.8
2026/04/13 15:04:12.44,IMU,-38.09,1.46,-1013.67,-0.79,0.16,2.59,13.50,36.00,34.65,26.8
2026/04/13 15:04:12.54,IMU,-44.43,-6.84,-1006.35,2.24,-1.44,0.08,13.95,35.25,33.15,26.8
2026/04/13 15:04:12.64,IMU,-41.99,6.35,-1014.65,-0.37,-1.12,0.15,13.50,35.55,36.45,26.9
2026/04/13 15:04:12.74,IMU,-28.32,3.91,-1011.23,0.82,1.02,1.40,14.25,36.45,34.95,26.5
2026/04/13 15:04:12.84,IMU,-37.60,1.46,-1029.30,0.31,-0.41,2.62,13.20,37.20,34.65,26.7
2026/04/13 15:04:12.94,IMU,-44.92,2.44,-1021.48,0.46,-1.27,1.47,14.10,36.15,35.85,26.6
2026/04/13 15:04:13.04,IMU,-40.53,3.42,-1008.79,-1.16,1.60,-0.35,13.65,36.60,35.85,26.8
2026/04/13 15:04:13.14,IMU,-40.04,9.28,-1020.51,0.41,0.85,-2.28,12.45,37.95,35.25,26.8
2026/04/13 15:04:13.24,IMU,-37.60,-14.65,-1011.72,0.66,0.08,1.74,9.75,34.65,39.15,26.7
2026/04/13 15:04:13.34,IMU,-41.02,1.46,-1016.11,-0.74,-0.86,-0.27,13.95,36.00,35.25,26.9
2026/04/13 15:04:13.44,IMU,-39.06,-3.42,-1015.63,-1.18,2.23,-1.31,13.35,36.15,34.35,26.7
2026/04/13 15:04:13.54,IMU,-38.09,0.98,-1022.95,-0.31,-0.33,-2.36,13.95,35.55,35.25,26.9
2026/04/13 15:04:13.64,IMU,-39.06,10.25,-1030.76,2.45,-0.11,-0.24,13.05,35.85,34.80,26.6
2026/04/13 15:04:13.74,IMU,-46.39,-9.77,-1013.67,1.34,-0.54,1.18,13.05,35.10,34.35,26.8
2026/04/13 15:04:13.84,IMU,-43.46,-8.30,-1020.02,1.18,1.42,1.02,13.20,35.55,34.20,26.9
2026/04/13 15:04:13.94,IMU,-51.76,-3.91,-1003.91,-0.02,0.66,-2.63,14.70,37.20,36.00,26.9
2026/04/13 15:04:14.04,IMU,-43.46,2.44,-1010.74,0.49,-1.16,-1.03,13.95,37.50,36.00,26.8
2026/04/13 15:04:14.14,IMU,-23.44,-1.95,-1000.98,1.52,0.29,1.66,13.65,35.40,35.10,26.8
2026/04/13 15:04:14.25,IMU,-44.43,2.44,-1025.88,-0.01,2.91,0.40,13.65,36.60,35.55,26.9
2026/04/13 15:04:14.35,IMU,-37.11,-4.88,-1009.77,0.72,-2.08,-4.98,13.20,36.75,34.95,26.8
2026/04/13 15:04:14.45,IMU,-41.99,8.30,-1013.18,0.45,0.05,-1.76,12.75,34.80,34.65,26.7
2026/04/13 15:04:14.55,IMU,-45.90,3.42,-1021.97,0.76,1.29,3.62,14.70,36.45,35.25,26.8
2026/04/13 15:04:14.65,IMU,-36.62,6.84,-1017.58,0.21,-0.41,-0.04,13.35,36.15,34.35,26.8
2026/04/13 15:04:14.75,IMU,-43.46,-0.49,-1013.67,0.37,0.04,1.73,14.40,36.15,35.55,26.8
2026/04/13 15:04:14.85,IMU,-42.97,6.35,-1022.95,0.97,-0.69,0.18,13.65,35.40,35.55,26.8
2026/04/13 15:04:14.95,IMU,-38.57,-9.28,-1017.09,-1.02,1.24,-0.90,14.70,36.00,35.25,26.8
2026/04/13 15:04:15.05,IMU,-41.99,-0.98,-1008.30,-0.26,0.85,-1.40,14.40,36.60,36.60,26.8
2026/04/13 15:04:15.15,IMU,-41.50,7.81,-1017.58,1.37,1.50,0.23,13.65,35.85,34.05,26.5
2026/04/13 15:04:15.26,IMU,-36.62,-6.35,-1025.88,-0.70,-2.03,-1.08,14.85,36.15,34.80,26.8
2026/04/13 15:04:15.36,IMU,-48.34,-6.35,-1013.18,0.52,0.11,-0.01,13.50,35.25,34.20,26.6
2026/04/13 15:04:15.46,IMU,-37.60,-9.77,-1000.00,1.31,-0.10,-1.03,12.75,36.75,34.95,26.7
2026/04/13 15:04:15.56,IMU,-52.73,0.00,-1018.55,1.90,-0.90,-1.16,13.50,36.00,36.00,26.6
2026/04/13 15:04:15.66,IMU,-44.43,7.81,-1012.21,-0.18,-0.34,1.62,14.40,35.85,34.80,26.9
2026/04/13 15:04:15.76,IMU,-38.57,-7.32,-1011.72,-1.34,0.58,-0.41,12.30,36.15,34.35,26.9
2026/04/13 15:04:15.86,IMU,-47.36,2.44,-1022.95,1.67,2.52,-0.22,14.25,36.00,35.70,26.8
2026/04/13 15:04:15.96,IMU,-33.20,-0.98,-1011.72,1.24,-2.05,-0.60,13.95,36.00,35.25,26.9
2026/04/13 15:04:16.06,IMU,-43.46,9.77,-1026.37,1.05,-2.29,-1.56,13.65,36.60,34.35,26.8
2026/04/13 15:04:16.16,IMU,-49.80,-9.77,-1016.60,-0.41,-0.20,1.09,14.25,36.75,35.25,27.0
2026/04/13 15:04:16.26,IMU,-40.53,3.42,-1018.07,0.57,1.43,1.94,13.65,37.35,35.10,26.7
2026/04/13 15:04:16.36,IMU,-33.69,-1.46,-1013.67,1.27,-0.24,-0.76,13.35,37.35,35.55,27.0
2026/04/13 15:04:16.46,IMU,-45.90,-3.42,-1022.46,-0.04,1.39,1.35,13.50,35.25,34.95,26.7
2026/04/13 15:04:16.56,IMU,-38.09,-3.42,-1011.23,0.13,-0.72,0.47,15.15,36.15,35.55,26.6
2026/04/13 15:04:16.66,IMU,-37.60,-1.95,-1014.65,0.95,1.18,-0.85,14.10,37.35,35.85,26.8
2026/04/13 15:04:16.76,IMU,-39.55,-1.95,-1010.74,0.72,-1.42,0.31,14.70,34.50,34.95,26.7
2026/04/13 15:04:16.86,IMU,-43.46,-4.88,-1021.00,0.56,-2.02,0.68,12.30,35.40,34.35,27.0
2026/04/13 15:04:16.96,IMU,-40.04,-3.42,-1003.91,-0.31,1.16,-1.01,14.10,35.85,34.80,26.7
2026/04/13 15:04:17.06,IMU,-35.16,-8.30,-1000.49,0.60,0.20,0.89,14.25,36.75,34.20,26.7
2026/04/13 15:04:17.16,IMU,-62.50,-4.39,-1010.74,0.03,0.71,0.82,13.65,35.85,35.55,26.9
2026/04/13 15:04:17.26,IMU,-38.09,1.95,-1013.18,1.48,-0.68,-0.60,13.95,37.20,35.25,26.9
2026/04/13 15:04:17.36,IMU,-35.16,7.81,-1000.98,0.23,1.11,-0.98,14.25,34.80,35.25,26.8
2026/04/13 15:04:17.46,IMU,-60.06,-8.30,-1010.25,2.11,0.03,0.89,15.00,36.45,34.20,27.0
2026/04/13 15:04:17.56,IMU,-34.67,-10.74,-1005.86,0.58,1.95,-0.69,14.25,36.75,36.00,26.8
2026/04/13 15:04:17.66,IMU,-33.20,0.49,-1015.14,0.66,0.85,0.93,13.95,35.55,36.00,26.8
2026/04/13 15:04:17.76,IMU,-32.71,-18.55,-997.56,1.04,-2.15,0.11,13.35,36.15,34.35,26.7
2026/04/13 15:04:17.86,IMU,-58.11,-3.42,-1018.07,-0.79,0.70,-0.30,14.10,35.40,35.10,26.6
2026/04/13 15:04:17.96,IMU,-46.88,1.46,-1021.48,0.69,0.37,-2.27,13.20,35.55,34.65,26.9
2026/04/13 15:04:18.06,IMU,-50.78,11.72,-1016.60,0.93,0.57,-0.28,14.25,35.55,33.45,26.8
2026/04/13 15:04:18.16,IMU,-38.09,-1.95,-1014.16,-0.28,3.84,0.64,12.75,35.55,34.65,26.8
2026/04/13 15:04:18.26,IMU,-42.97,4.88,-1016.11,0.35,1.21,0.83,14.25,36.00,35.70,26.7
2026/04/13 15:04:18.37,IMU,-41.50,-0.49,-1004.39,-0.75,1.95,-0.54,13.35,36.60,35.85,26.8
2026/04/13 15:04:18.47,IMU,-38.57,-3.91,-1012.21,0.14,1.61,0.58,13.05,36.15,35.10,26.8
2026/04/13 15:04:18.57,IMU,-38.09,2.93,-1016.11,1.26,-1.27,1.24,13.95,36.75,35.25,26.9
2026/04/13 15:04:18.67,IMU,-37.11,-2.44,-1009.28,0.42,-1.05,2.18,14.10,36.15,34.35,26.8
2026/04/13 15:04:18.77,IMU,-42.97,-12.21,-1016.60,0.30,0.78,3.79,14.40,36.15,35.55,26.6
2026/04/13 15:04:18.87,IMU,-55.66,1.46,-1012.21,-0.30,0.00,1.57,14.25,38.25,35.25,26.7
2026/04/13 15:04:18.97,IMU,-41.99,-7.81,-1023.93,0.68,-1.23,-0.55,13.35,36.15,36.15,26.8
2026/04/13 15:04:19.07,IMU,-32.71,2.44,-1010.74,-1.28,-0.25,1.17,14.25,36.45,34.95,26.9
2026/04/13 15:04:19.17,IMU,-46.39,6.84,-1011.72,-0.49,-0.18,-2.29,13.35,36.60,33.60,26.8
2026/04/13 15:04:19.27,IMU,-42.48,-13.18,-1019.04,0.09,1.67,1.74,14.70,37.20,35.25,26.8
2026/04/13 15:04:19.37,IMU,-34.18,-9.28,-1021.97,2.24,-0.11,-0.77,14.40,34.65,34.05,26.9
2026/04/13 15:04:19.47,IMU,-32.71,-9.77,-1006.35,0.26,-1.05,-0.15,13.05,36.90,34.80,26.7
2026/04/13 15:04:19.57,IMU,-25.88,-2.93,-1018.55,1.05,-0.69,0.38,13.50,36.75,34.20,26.7
2026/04/13 15:04:19.67,IMU,-40.53,7.32,-1013.67,0.81,1.20,2.46,14.10,36.90,34.05,27.1
2026/04/13 15:04:19.77,IMU,-41.50,1.46,-999.51,0.78,0.91,-0.46,13.20,36.75,34.65,26.8
2026/04/13 15:04:19.87,IMU,-46.88,19.04,-1016.11,-1.26,1.12,2.50,14.40,36.15,35.55,26.9
2026/04/13 15:04:19.97,IMU,-48.34,2.93,-1023.93,1.50,-0.18,1.42,13.65,35.10,36.60,27.0
2026/04/13 15:04:20.07,IMU,-45.41,3.42,-1025.88,0.73,0.09,2.21,13.35,35.85,34.05,26.8
2026/04/13 15:04:20.17,IMU,-44.43,-9.28,-1015.63,2.21,0.27,0.57,13.65,36.90,34.35,26.7
2026/04/13 15:04:20.27,IMU,-34.67,1.95,-1012.21,1.48,-1.44,2.21,11.85,36.15,34.80,26.9
2026/04/13 15:04:20.37,IMU,-43.95,-6.84,-1020.02,0.10,-1.13,3.14,13.65,36.15,35.55,26.9
2026/04/13 15:04:20.47,IMU,-45.41,16.60,-1015.14,0.28,-1.54,-1.40,14.25,36.00,33.90,27.1
2026/04/13 15:04:20.57,IMU,-45.41,0.00,-1005.37,2.05,0.34,0.82,13.50,35.25,35.70,26.8
2026/04/13 15:04:20.67,IMU,-39.55,1.46,-1012.21,0.57,0.32,2.92,14.10,35.40,34.35,26.8
2026/04/13 15:04:20.77,IMU,-41.02,6.84,-1020.02,-1.62,2.27,2.15,13.65,37.35,36.15,27.0
2026/04/13 15:04:20.87,IMU,-44.43,-0.98,-1011.23,-0.43,0.54,0.63,12.00,35.55,35.70,26.6
2026/04/13 15:04:20.97,IMU,-39.55,-15.63,-1010.74,0.31,-0.66,-2.94,13.95,36.00,34.65,26.9
2026/04/13 15:04:21.07,IMU,-38.09,-1.46,-1002.93,-0.85,0.39,1.79,13.50,35.55,35.70,26.9
2026/04/13 15:04:21.17,IMU,-51.76,12.21,-1016.60,1.03,2.88,3.05,13.95,36.00,35.25,26.6
2026/04/13 15:04:21.27,IMU,-42.48,4.39,-1019.04,0.66,-1.11,2.19,13.50,34.80,33.90,27.0
2026/04/13 15:04:21.37,IMU,-39.06,-8.30,-1017.09,0.04,0.51,2.40,11.70,34.05,38.25,26.7
2026/04/13 15:04:21.48,IMU,-45.90,-0.98,-1005.37,-0.73,0.60,0.68,14.10,35.40,34.05,26.9
2026/04/13 15:04:21.58,IMU,-42.48,4.88,-1012.70,0.84,1.45,-1.50,14.40,36.15,34.80,26.5
2026/04/13 15:04:21.68,IMU,-40.04,-1.95,-1023.44,1.14,-1.87,1.64,14.25,36.75,34.95,26.8
2026/04/13 15:04:21.78,IMU,-34.67,2.93,-1005.86,-2.08,0.05,-1.02,14.85,36.15,35.55,26.7
2026/04/13 15:04:21.88,IMU,-45.90,1.46,-1018.55,-0.82,3.14,-0.33,13.35,36.15,35.55,26.9
2026/04/13 15:04:21.98,IMU,-45.41,-2.44,-1017.09,-0.37,0.73,-0.79,14.25,37.50,35.70,26.8
2026/04/13 15:04:22.08,IMU,-37.11,-13.67,-1030.27,1.56,2.14,0.76,13.35,37.35,33.60,26.6
2026/04/13 15:04:22.18,IMU,-38.57,3.91,-1025.88,-1.37,-0.35,-0.34,13.65,36.15,35.55,26.8
2026/04/13 15:04:22.28,IMU,-41.99,0.98,-1013.67,0.94,1.50,-1.42,13.65,37.65,35.10,26.8
2026/04/13 15:04:22.38,IMU,-33.69,-2.44,-1017.58,-0.50,1.51,0.11,10.95,35.25,38.55,26.9
2026/04/13 15:04:22.48,IMU,-41.99,4.88,-1012.21,1.17,-0.06,-0.23,13.65,36.15,35.10,26.5
2026/04/13 15:04:22.58,IMU,-43.46,-1.46,-1020.51,1.05,1.18,1.70,13.20,36.75,34.20,26.8
2026/04/13 15:04:22.68,IMU,-42.48,-4.39,-1019.53,-1.01,-0.66,1.20,15.60,36.90,36.90,26.8
2026/04/13 15:04:22.78,IMU,-40.53,5.37,-1013.18,0.27,0.16,0.02,14.10,36.60,35.55,26.8
2026/04/13 15:04:22.88,IMU,-44.92,20.51,-1005.37,-1.26,1.24,1.24,13.05,36.60,34.35,26.7
2026/04/13 15:04:22.98,IMU,-48.83,-4.39,-1030.76,0.56,-0.99,-0.36,13.65,35.10,34.35,26.6
2026/04/13 15:04:23.08,IMU,-32.23,-14.65,-1026.37,0.11,1.82,0.41,13.50,36.00,34.95,26.7
2026/04/13 15:04:23.18,IMU,-47.36,-4.39,-1023.44,0.11,-0.19,-0.12,14.40,35.85,37.35,26.8
2026/04/13 15:04:23.28,IMU,-46.88,-0.98,-1015.14,0.38,-0.18,-1.11,13.65,35.85,35.10,27.0
2026/04/13 15:04:23.39,IMU,-50.78,3.91,-1025.88,0.14,2.53,1.28,9.75,33.15,39.75,26.8
2026/04/13 15:04:23.49,IMU,-44.92,0.49,-1013.67,0.75,-2.36,0.85,13.65,36.60,34.35,26.7
2026/04/13 15:04:23.59,IMU,-35.16,2.44,-1014.16,-2.05,-0.12,0.11,13.95,36.00,34.65,27.0
2026/04/13 15:04:23.69,IMU,-47.36,-0.49,-1023.44,1.02,-1.32,-1.10,12.00,35.55,33.90,26.7
2026/04/13 15:04:23.79,IMU,-30.76,-1.95,-1008.79,2.32,-0.08,-0.61,14.70,36.00,33.90,26.9
2026/04/13 15:04:23.89,IMU,-41.02,-4.39,-1014.16,-0.05,1.33,1.38,13.95,35.25,35.70,26.7
2026/04/13 15:04:23.99,IMU,-41.50,-10.25,-1014.16,0.15,-1.75,0.93,13.05,36.90,35.55,26.8
2026/04/13 15:04:24.09,IMU,-29.30,1.46,-1003.42,-1.26,3.34,0.70,13.20,36.00,35.25,26.8
2026/04/13 15:04:24.19,IMU,-49.80,-2.44,-1015.14,1.24,1.05,4.29,14.10,35.40,36.15,26.7
2026/04/13 15:04:24.29,IMU,-40.04,12.70,-1001.95,-0.30,0.26,1.26,13.95,36.45,34.20,26.9
2026/04/13 15:04:24.39,IMU,-32.71,-6.84,-1013.67,-1.88,-1.44,1.77,13.05,36.15,35.10,27.0
2026/04/13 15:04:24.49,IMU,-41.99,-1.95,-1032.23,0.78,-1.16,-2.91,15.15,36.90,35.10,26.9
2026/04/13 15:04:24.59,IMU,-39.55,-5.37,-1012.70,1.49,-2.15,1.31,14.70,36.75,34.65,26.4
2026/04/13 15:04:24.69,IMU,-39.55,4.88,-1016.60,1.70,1.55,0.95,13.20,36.75,35.70,26.9
2026/04/13 15:04:24.79,IMU,-49.80,1.46,-1026.37,-0.05,-0.40,3.39,13.95,37.20,33.45,26.8
2026/04/13 15:04:24.89,IMU,-44.92,0.98,-1011.72,0.59,-0.97,-0.01,13.95,36.45,34.65,26.6
2026/04/13 15:04:24.99,IMU,-39.55,-5.86,-1016.11,1.50,1.85,-0.59,14.25,38.25,34.95,26.8
2026/04/13 15:04:25.09,IMU,-34.18,10.25,-1014.65,1.02,0.84,3.21,14.85,36.60,34.35,26.7
2026/04/13 15:04:25.19,IMU,-46.88,4.39,-1024.41,-0.36,1.76,-0.21,15.00,36.00,34.95,26.8
2026/04/13 15:04:25.30,IMU,-42.48,-4.39,-1009.28,-1.14,0.92,0.31,15.00,35.85,35.10,26.7
2026/04/13 15:04:25.40,IMU,-44.43,-4.39,-1013.67,-0.89,1.66,-0.56,13.50,35.25,35.25,26.8
2026/04/13 15:04:25.50,IMU,-29.79,-1.46,-1010.25,0.87,1.68,-3.43,15.00,35.25,33.45,26.6
2026/04/13 15:04:25.60,IMU,-61.04,-5.86,-1010.74,1.70,-1.22,1.87,14.40,36.60,35.85,26.9
2026/04/13 15:04:25.70,IMU,-42.97,-3.42,-1007.32,0.43,0.29,1.18,14.25,36.75,36.45,26.7
2026/04/13 15:04:25.80,IMU,-39.55,-1.95,-1006.84,-0.97,-0.89,-0.90,13.05,36.60,34.80,26.6
2026/04/13 15:04:25.90,IMU,-51.27,-8.79,-1008.30,0.11,2.46,0.46,13.35,35.25,35.25,26.9
2026/04/13 15:04:26.00,IMU,-44.92,7.81,-1011.23,0.39,1.55,-0.34,14.25,36.45,34.65,26.8
2026/04/13 15:04:26.10,IMU,-40.04,-4.88,-1032.71,0.94,1.06,1.16,14.10,35.85,35.55,26.8
2026/04/13 15:04:26.20,IMU,-38.57,1.95,-1006.35,-0.15,2.13,-0.69,13.95,37.20,33.90,26.9
2026/04/13 15:04:26.30,IMU,-48.83,-6.35,-1008.30,-0.31,2.82,-0.71,13.50,34.80,34.95,26.8
2026/04/13 15:04:26.40,IMU,-28.32,-7.32,-1003.91,-0.36,-2.03,-1.95,13.95,36.00,35.25,26.9
2026/04/13 15:04:26.50,IMU,-40.04,12.21,-1026.37,0.40,-0.50,0.21,14.25,35.25,36.45,26.8
2026/04/13 15:04:26.60,IMU,-35.16,10.74,-1011.23,1.40,-0.20,-0.42,14.10,36.15,35.55,27.1
2026/04/13 15:04:26.70,IMU,-44.43,-6.84,-994.63,0.62,1.62,-1.03,15.00,36.00,33.90,26.7
2026/04/13 15:04:26.80,IMU,-42.97,-11.72,-1020.51,0.82,0.56,0.14,14.40,36.90,34.05,26.7
2026/04/13 15:04:26.90,IMU,-37.60,-4.88,-1021.97,-1.11,1.44,2.21,13.65,35.85,35.10,26.8
2026/04/13 15:04:27.00,IMU,-39.06,0.49,-1019.04,-0.34,1.01,-0.24,14.10,37.35,35.10,26.8
2026/04/13 15:04:27.10,IMU,-41.50,5.37,-1015.14,0.38,1.15,1.44,14.10,36.60,35.55,26.7
2026/04/13 15:04:27.20,IMU,-56.15,0.98,-1010.74,-0.69,-0.27,-1.32,14.10,35.85,36.60,26.7
2026/04/13 15:04:27.30,IMU,-43.46,8.30,-1014.65,-0.08,0.12,0.56,13.95,36.45,34.20,26.9
2026/04/13 15:04:27.40,IMU,-37.11,6.35,-1018.07,0.73,1.27,-1.22,13.35,36.15,35.10,26.8
2026/04/13 15:04:27.50,IMU,-39.55,5.86,-995.61,0.66,2.74,-0.53,12.60,36.15,34.05,26.7
2026/04/13 15:04:27.60,IMU,-43.46,6.84,-1007.81,1.89,0.40,-1.28,14.10,35.85,34.80,26.7
2026/04/13 15:04:27.70,IMU,-41.99,1.46,-1011.72,0.66,-0.53,-0.27,13.95,37.20,34.95,26.9
2026/04/13 15:04:27.80,IMU,-42.48,-2.44,-1006.35,1.17,-1.93,-0.81,13.65,36.90,35.10,27.0
2026/04/13 15:04:27.90,IMU,-52.25,-16.60,-1020.02,-1.02,1.20,-0.50,13.50,34.80,35.25,26.6
2026/04/13 15:04:28.00,IMU,-37.60,1.46,-1017.09,2.37,1.50,1.82,14.25,36.45,35.25,26.7
2026/04/13 15:04:28.10,IMU,-29.30,3.42,-1007.81,0.71,0.99,1.00,12.75,36.75,34.95,26.4
2026/04/13 15:04:28.20,IMU,-44.43,0.49,-1019.53,0.49,-0.63,-0.95,14.25,35.25,34.95,26.8
2026/04/13 15:04:28.30,IMU,-29.79,1.95,-1017.58,-0.43,0.50,-0.10,13.65,36.15,35.10,26.8
2026/04/13 15:04:28.40,IMU,-34.18,-7.32,-1015.14,-1.41,1.71,1.96,13.65,36.90,35.55,27.0
2026/04/13 15:04:28.51,IMU,-44.43,4.88,-1024.90,0.44,1.30,1.69,13.35,35.85,35.10,26.8
2026/04/13 15:04:28.61,IMU,-51.27,5.37,-1010.74,0.09,-1.55,-0.25,14.85,36.60,35.10,26.8
2026/04/13 15:04:28.71,IMU,-41.50,-0.98,-1001.95,-0.11,-0.60,0.21,15.45,36.00,33.90,26.8
2026/04/13 15:04:28.81,IMU,-49.32,-9.28,-1025.39,0.97,-0.46,1.48,13.50,36.75,35.25,26.7
2026/04/13 15:04:28.91,IMU,-37.60,-13.67,-1002.93,-0.05,0.51,1.72,14.10,35.85,35.85,27.0
2026/04/13 15:04:29.01,IMU,-44.92,1.95,-1002.93,-1.29,0.30,-0.56,13.35,36.15,35.10,26.5
2026/04/13 15:04:29.11,IMU,-34.18,-0.98,-1012.70,0.55,-0.27,-0.52,13.65,35.85,34.80,26.8
2026/04/13 15:04:29.21,IMU,-44.92,5.37,-1003.91,0.38,-0.62,1.42,13.20,36.00,34.95,26.9
2026/04/13 15:04:29.31,IMU,-41.50,2.93,-1012.21,-0.24,-1.11,-1.37,13.35,35.85,35.10,26.8
2026/04/13 15:04:29.41,IMU,-50.29,8.79,-1006.35,-1.21,-0.09,-0.90,15.00,35.55,34.95,27.0
2026/04/13 15:04:29.51,IMU,-38.57,2.93,-1001.46,0.66,-1.15,1.93,13.65,36.90,35.10,26.9
2026/04/13 15:04:29.61,IMU,-40.04,11.23,-1019.04,0.76,0.29,-0.15,13.50,36.75,34.95,26.9
2026/04/13 15:04:29.71,IMU,-37.11,8.79,-1014.16,0.94,-1.18,-0.10,14.85,36.15,35.10,26.7
2026/04/13 15:04:29.81,IMU,-29.79,10.74,-1029.79,0.74,0.26,1.40,12.45,36.45,34.20,26.8
2026/04/13 15:04:29.91,IMU,-43.46,-0.98,-1007.81,1.66,0.58,-2.11,13.20,36.00,35.25,26.9
2026/04/13 15:04:30.01,IMU,-56.64,-0.98,-1020.02,-0.07,0.76,0.20,13.65,35.10,34.05,27.1
2026/04/13 15:04:30.11,IMU,-36.13,-9.28,-1029.79,0.01,1.85,-0.45,14.10,35.10,35.10,27.1
2026/04/13 15:04:30.21,IMU,-44.43,-1.46,-1017.09,-1.38,-0.41,-0.09,12.30,36.15,35.10,27.0
2026/04/13 15:04:30.31,IMU,-41.99,-6.84,-1023.93,0.47,0.84,0.50,14.70,37.20,35.25,27.0
2026/04/13 15:04:30.41,IMU,-45.41,-1.46,-1017.58,-1.24,-0.82,2.86,13.20,35.55,34.95,27.0
2026/04/13 15:04:30.51,IMU,-49.80,-2.44,-1007.32,0.28,-1.21,-2.20,11.85,33.60,36.90,26.8
2026/04/13 15:04:30.61,IMU,-39.06,-5.37,-1009.28,1.06,1.98,-2.15,13.95,36.45,34.95,27.0
2026/04/13 15:04:30.71,IMU,-39.06,6.35,-1010.25,0.40,1.47,0.92,13.05,35.40,35.55,27.0
2026/04/13 15:04:30.81,IMU,-36.13,-1.95,-1007.32,0.11,1.13,-0.54,13.05,35.85,35.10,26.8
2026/04/13 15:04:30.91,IMU,-40.04,7.32,-1014.16,0.16,-1.65,0.19,15.60,36.60,35.10,26.7
2026/04/13 15:04:31.01,IMU,-25.39,-2.44,-1023.93,0.51,0.34,2.02,13.95,35.25,34.65,26.7
2026/04/13 15:04:31.11,IMU,-33.69,1.46,-1010.25,1.08,0.51,-0.52,13.50,36.75,34.95,27.0
2026/04/13 15:04:31.21,IMU,-40.04,-2.44,-1014.16,0.21,-0.47,-0.35,14.10,35.85,34.05,26.8
2026/04/13 15:04:31.31,IMU,-48.83,-8.30,-1012.21,0.48,0.83,0.67,12.60,36.15,35.55,26.7
2026/04/13 15:04:31.41,IMU,-48.34,0.49,-1023.44,1.39,-0.79,0.00,13.50,36.00,34.20,27.1
2026/04/13 15:04:31.52,IMU,-41.50,-7.32,-1018.07,0.85,0.08,-1.45,10.95,33.75,40.05,26.9
2026/04/13 15:04:31.62,IMU,-42.48,5.86,-1016.11,0.11,0.86,1.08,13.20,35.25,35.25,26.9
2026/04/13 15:04:31.72,IMU,-36.13,0.49,-1020.51,0.44,1.17,1.63,13.20,34.50,34.95,26.8
2026/04/13 15:04:31.82,IMU,-43.46,3.91,-1010.74,-0.85,-0.41,2.69,12.60,36.15,35.10,26.7
2026/04/13 15:04:31.92,IMU,-43.46,7.81,-1007.32,0.37,0.79,1.50,13.35,36.15,35.55,26.7
2026/04/13 15:04:32.02,IMU,-41.50,0.49,-1021.48,0.66,0.85,-0.93,13.20,36.75,35.25,26.9
2026/04/13 15:04:32.12,IMU,-36.62,-8.79,-1005.37,-0.75,-1.11,0.02,12.60,35.85,35.55,26.7
2026/04/13 15:04:32.22,IMU,-60.06,-0.49,-1011.72,-1.12,-1.00,-1.98,13.35,35.85,36.15,26.7
2026/04/13 15:04:32.32,IMU,-52.73,6.35,-1003.91,2.08,-0.21,-0.02,13.65,34.35,35.55,26.8
2026/04/13 15:04:32.42,IMU,-42.48,4.39,-1004.39,1.72,-0.61,-1.56,13.20,36.45,35.25,27.0
2026/04/13 15:04:32.53,IMU,-52.73,-5.37,-1001.95,0.70,1.86,1.47,9.90,32.55,40.35,26.8
2026/04/13 15:04:32.63,IMU,-33.69,2.44,-1009.77,-0.26,-0.11,2.62,13.65,35.85,35.10,26.9
2026/04/13 15:04:32.73,IMU,-39.06,-16.60,-1008.79,0.63,1.20,0.25,12.60,36.60,34.35,26.6
2026/04/13 15:04:32.83,IMU,-41.99,-3.91,-1007.32,-0.83,1.73,1.49,13.65,36.15,35.10,27.0
2026/04/13 15:04:32.93,IMU,-41.99,-2.93,-1008.79,0.37,0.12,-1.05,15.00,36.75,34.20,26.6
2026/04/13 15:04:33.03,IMU,-39.06,-4.39,-1003.91,-1.08,0.51,1.05,14.25,36.00,35.25,27.1
2026/04/13 15:04:33.13,IMU,-37.11,-1.95,-1007.81,0.24,1.82,0.31,13.35,35.40,35.10,26.8
2026/04/13 15:04:33.23,IMU,-54.69,-8.79,-1021.48,0.15,-0.42,2.91,13.95,36.75,36.45,26.8
2026/04/13 15:04:33.33,IMU,-42.97,-18.55,-1020.51,-1.34,-1.69,1.63,13.05,36.15,36.15,27.0
2026/04/13 15:04:33.43,IMU,-39.06,7.81,-1013.67,0.29,1.29,0.43,14.70,35.55,34.95,26.7
2026/04/13 15:04:33.53,IMU,-28.81,-4.88,-1018.55,1.62,-0.06,-2.08,14.10,36.60,33.30,26.8
2026/04/13 15:04:33.63,IMU,-46.39,0.98,-1016.60,0.31,1.14,-1.17,14.10,36.90,35.85,27.0
2026/04/13 15:04:33.73,IMU,-46.88,1.46,-1009.77,-1.05,0.58,-1.60,15.75,36.45,34.95,26.8
2026/04/13 15:04:33.83,IMU,-48.83,-1.95,-1021.00,-1.28,1.45,-2.40,13.65,36.60,34.80,27.0
2026/04/13 15:04:33.93,IMU,-42.97,-5.37,-1008.30,-1.73,0.12,-1.03,12.30,35.40,34.35,26.8
2026/04/13 15:04:34.03,IMU,-44.92,-9.28,-1021.97,-0.92,-0.67,-1.69,14.25,36.75,35.25,26.8
2026/04/13 15:04:34.13,IMU,-41.50,-0.49,-1015.14,-0.38,-0.13,1.97,14.40,35.40,34.80,26.9
2026/04/13 15:04:34.23,IMU,-43.95,2.44,-1011.23,0.98,0.21,-4.50,13.20,37.95,35.25,27.0
2026/04/13 15:04:34.33,IMU,-41.02,10.74,-1013.67,0.79,0.47,-0.06,13.35,35.85,35.85,26.7
2026/04/13 15:04:34.43,IMU,-51.27,-3.91,-1004.39,0.47,-1.12,2.92,13.35,36.15,34.05,26.7
2026/04/13 15:04:34.53,IMU,-38.09,-3.91,-1014.65,0.85,1.29,-0.92,14.70,36.45,35.70,26.7
2026/04/13 15:04:34.63,IMU,-39.55,12.21,-1017.09,0.01,-0.98,1.90,14.10,37.35,34.35,26.8
2026/04/13 15:04:34.73,IMU,-39.55,5.37,-1016.11,-0.32,0.90,1.82,13.20,36.45,33.45,26.6
2026/04/13 15:04:34.83,IMU,-48.83,-5.37,-1017.09,0.91,-0.67,-0.60,14.40,36.90,34.80,26.8
2026/04/13 15:04:34.93,IMU,-36.13,-6.35,-1018.07,1.50,0.91,0.80,13.65,35.85,35.85,26.8
2026/04/13 15:04:35.03,IMU,-42.97,-8.30,-1001.46,-0.12,2.15,0.34,13.65,36.15,35.85,26.8
2026/04/13 15:04:35.13,IMU,-47.36,2.44,-1023.93,-0.31,2.03,1.09,14.70,35.25,35.70,26.7
2026/04/13 15:04:35.23,IMU,-45.90,-2.93,-1004.88,2.50,-0.60,-0.17,15.75,36.45,34.65,26.9
2026/04/13 15:04:35.34,IMU,-48.83,-5.86,-1011.23,-0.23,-1.15,-1.65,13.35,36.15,33.30,26.8
2026/04/13 15:04:35.44,IMU,-43.95,3.91,-1005.86,-0.84,0.40,-1.44,13.65,36.15,34.35,26.5
2026/04/13 15:04:35.54,IMU,-48.34,1.95,-1003.91,0.63,0.30,1.95,13.65,36.15,36.15,26.7
2026/04/13 15:04:35.64,IMU,-33.20,11.72,-1011.72,-0.21,1.24,0.56,13.35,35.85,35.85,26.8
2026/04/13 15:04:35.74,IMU,-35.64,-7.32,-1014.65,-0.44,-0.95,1.06,15.45,35.25,35.25,27.0
2026/04/13 15:04:35.84,IMU,-35.64,-4.39,-1015.63,0.89,0.58,0.24,13.20,36.45,34.65,27.0
2026/04/13 15:04:35.94,IMU,-36.13,-5.86,-1019.53,0.63,-1.05,-2.28,13.95,37.20,34.95,26.8
2026/04/13 15:04:36.04,IMU,-43.46,16.60,-1003.91,-2.60,0.26,1.15,13.65,36.60,34.80,26.9
2026/04/13 15:04:36.14,IMU,-38.09,12.21,-1015.14,-0.63,-1.51,0.31,12.75,36.75,35.25,26.4
2026/04/13 15:04:36.24,IMU,-46.39,0.49,-1014.65,0.10,0.39,-1.82,14.85,36.90,35.10,26.7
2026/04/13 15:04:36.34,IMU,-38.09,5.37,-1007.32,0.42,-0.44,-1.38,14.85,37.35,35.85,26.9
2026/04/13 15:04:36.44,IMU,-55.18,-7.81,-1017.09,1.59,-1.40,1.50,12.45,36.00,33.15,26.9
2026/04/13 15:04:36.54,IMU,-31.25,-2.93,-1010.25,0.11,0.18,3.11,13.35,35.10,34.05,27.0
2026/04/13 15:04:36.64,IMU,-34.18,5.86,-1022.46,-0.14,0.56,-1.40,13.35,36.90,35.55,26.7
2026/04/13 15:04:36.74,IMU,-39.06,-0.49,-1010.25,-0.54,-0.27,-2.15,14.25,36.00,34.95,26.8
2026/04/13 15:04:36.84,IMU,-40.04,-1.95,-1006.35,-0.43,0.60,0.14,14.25,36.00,34.65,26.8
2026/04/13 15:04:36.94,IMU,-46.39,-2.93,-1013.18,0.47,-1.63,0.79,14.10,36.60,34.35,26.9
2026/04/13 15:04:37.04,IMU,-43.95,2.93,-1019.53,-1.18,0.31,1.16,13.95,37.20,36.00,26.6
2026/04/13 15:04:37.14,IMU,-43.46,-8.79,-1018.55,1.76,0.26,0.60,13.50,36.75,34.65,26.9
2026/04/13 15:04:37.24,IMU,-40.04,8.30,-1006.35,0.53,0.40,-1.41,14.70,36.75,35.25,26.7
2026/04/13 15:04:37.34,IMU,-41.50,-2.93,-1016.60,-0.95,0.05,-3.11,13.95,36.45,34.95,26.8
2026/04/13 15:04:37.44,IMU,-42.48,12.21,-1008.30,0.67,-1.11,-0.32,13.50,36.75,36.00,26.8
2026/04/13 15:04:37.54,IMU,-42.48,8.79,-1006.84,1.08,2.43,2.08,13.50,36.75,37.05,27.1
2026/04/13 15:04:37.64,IMU,-38.09,-11.72,-1018.07,1.58,-0.27,-0.90,13.65,35.85,34.05,26.5
2026/04/13 15:04:37.74,IMU,-36.62,3.42,-1014.65,0.08,1.18,-0.05,14.10,36.60,35.10,27.1
2026/04/13 15:04:37.84,IMU,-46.88,-4.88,-1018.07,-0.11,-1.31,-1.05,13.65,36.15,35.55,26.9
2026/04/13 15:04:37.94,IMU,-43.95,5.37,-1005.37,-1.42,0.09,-0.49,14.25,36.75,34.95,26.8
2026/04/13 15:04:38.04,IMU,-40.53,1.46,-1022.46,1.47,0.15,-0.67,13.95,36.75,36.00,26.9
2026/04/13 15:04:38.14,IMU,-45.41,5.37,-1015.63,-0.82,-2.32,-2.67,13.50,35.55,36.00,26.7
2026/04/13 15:04:38.24,IMU,-42.97,4.88,-1011.72,-0.09,0.99,-1.93,12.00,36.45,34.20,26.9
2026/04/13 15:04:38.34,IMU,-39.06,-4.39,-1008.30,-0.53,1.69,1.23,13.05,36.90,36.15,26.6
2026/04/13 15:04:38.44,IMU,-49.80,-6.84,-1020.02,0.36,1.76,2.30,14.70,35.55,33.90,26.9
2026/04/13 15:04:38.55,IMU,-42.48,-11.23,-1017.09,-1.31,0.31,0.87,14.10,37.35,36.60,27.1
2026/04/13 15:04:38.65,IMU,-40.53,-9.77,-1018.55,0.53,1.38,-0.54,12.75,37.20,33.45,26.9
2026/04/13 15:04:38.75,IMU,-40.04,1.95,-1008.79,1.02,0.60,0.11,13.20,36.75,36.45,26.8
2026/04/13 15:04:38.85,IMU,-47.85,-14.65,-1012.70,-0.37,1.83,2.05,14.10,35.10,35.55,26.8
2026/04/13 15:04:38.95,IMU,-39.55,-4.39,-1010.74,2.47,1.44,0.82,13.35,35.10,35.10,26.8
2026/04/13 15:04:39.05,IMU,-45.90,-3.42,-1006.35,0.01,-1.56,0.48,13.65,36.60,33.60,26.7
2026/04/13 15:04:39.15,IMU,-58.11,0.49,-1016.11,1.23,2.17,0.59,14.85,36.60,35.55,26.9
2026/04/13 15:04:39.25,IMU,-44.43,-3.91,-1000.49,-0.81,-1.27,-0.08,13.50,36.00,34.65,26.7
2026/04/13 15:04:39.35,IMU,-31.74,-11.23,-1002.44,1.40,1.27,-1.21,13.35,37.35,34.80,26.9
2026/04/13 15:04:39.45,IMU,-40.53,1.46,-1014.16,-0.21,0.93,0.55,12.75,35.55,34.95,26.8
2026/04/13 15:04:39.55,IMU,-34.18,2.44,-1020.02,0.93,1.97,0.14,14.10,35.85,34.80,26.8
2026/04/13 15:04:39.65,IMU,-40.04,-3.42,-1020.51,-1.55,0.86,1.40,9.75,34.35,40.95,26.7
2026/04/13 15:04:39.75,IMU,-43.46,2.44,-1011.72,0.74,-1.08,0.10,14.10,36.60,34.35,27.0
2026/04/13 15:04:39.85,IMU,-41.99,2.44,-1018.07,-0.13,-0.84,-1.89,13.35,35.40,34.80,26.8
2026/04/13 15:04:39.95,IMU,-45.41,-1.95,-1016.60,0.12,0.85,-0.52,14.25,35.25,36.00,26.7
2026/04/13 15:04:40.05,IMU,-51.27,1.95,-1016.60,1.95,-0.39,-0.30,13.95,36.45,34.65,26.9
2026/04/13 15:04:40.15,IMU,-38.09,-9.28,-1002.44,0.56,-2.70,-0.15,12.60,35.85,36.15,26.7
2026/04/13 15:04:40.25,IMU,-50.78,-10.25,-1009.77,0.44,-0.04,1.24,12.75,36.45,35.25,26.9
2026/04/13 15:04:40.35,IMU,-41.50,-2.44,-1018.07,0.57,0.83,-2.78,13.05,37.65,35.10,26.8
2026/04/13 15:04:40.45,IMU,-27.34,9.28,-1014.65,-0.47,-0.49,-1.76,12.45,36.00,35.25,27.1
2026/04/13 15:04:40.55,IMU,-49.32,-2.93,-1004.88,1.16,1.26,2.03,14.25,36.45,33.45,26.8
2026/04/13 15:04:40.65,IMU,-41.99,6.35,-1006.35,0.83,1.42,0.14,9.75,35.10,39.75,27.0
2026/04/13 15:04:40.75,IMU,-42.48,4.88,-1024.90,2.09,1.94,-1.02,13.95,37.50,35.25,26.8
2026/04/13 15:04:40.85,IMU,-51.76,2.44,-1018.55,0.87,2.60,1.47,13.35,36.60,35.10,27.0
2026/04/13 15:04:40.95,IMU,-39.55,-4.39,-1021.00,0.11,-1.48,2.76,13.50,36.45,34.95,26.8
2026/04/13 15:04:41.05,IMU,-61.04,3.91,-1014.16,0.35,1.53,0.12,14.10,36.90,34.80,26.7
2026/04/13 15:04:41.15,IMU,-48.83,3.42,-1017.58,-1.28,1.66,-0.06,13.50,35.55,34.65,27.0
2026/04/13 15:04:41.25,IMU,-40.53,-17.09,-1006.84,-0.40,-0.03,2.10,15.15,37.35,35.55,26.6
2026/04/13 15:04:41.35,IMU,-45.41,-0.49,-1015.14,-0.89,-0.24,-2.66,14.10,36.15,34.80,27.0
2026/04/13 15:04:41.45,IMU,-39.55,-0.49,-1013.18,-0.29,-0.05,0.73,13.20,37.20,35.25,26.9
2026/04/13 15:04:41.56,IMU,-46.88,-8.79,-1011.72,-1.27,0.18,0.65,13.35,36.60,35.10,26.8
2026/04/13 15:04:41.66,IMU,-37.60,-1.95,-1004.39,0.78,1.60,-0.63,14.70,36.45,36.45,26.8
2026/04/13 15:04:41.76,IMU,-40.53,3.91,-1009.28,0.92,-0.30,-3.43,14.25,35.25,34.95,27.1
2026/04/13 15:04:41.86,IMU,-45.90,-1.46,-1010.74,1.89,-1.50,3.96,13.50,37.50,34.95,26.8
2026/04/13 15:04:41.96,IMU,-39.55,-4.39,-1018.55,1.25,0.95,0.18,13.65,36.60,34.80,26.8
2026/04/13 15:04:42.06,IMU,-37.60,-1.95,-1021.97,1.20,-0.25,-0.49,13.95,36.45,35.25,27.0
2026/04/13 15:04:42.16,IMU,-46.39,-2.93,-976.56,2.11,0.47,1.77,14.10,35.85,35.55,26.8
2026/04/13 15:04:42.26,IMU,-43.46,2.93,-1006.84,0.03,1.15,2.07,15.15,36.15,34.35,27.0
2026/04/13 15:04:42.36,IMU,-41.50,1.95,-1005.37,-0.23,-0.98,-2.41,14.25,36.00,34.95,26.9
2026/04/13 15:04:42.46,IMU,-39.06,-7.32,-994.14,1.73,2.19,-2.27,12.75,35.55,35.25,26.8
2026/04/13 15:04:42.56,IMU,-57.62,-7.32,-1018.07,0.05,-1.45,1.50,13.35,36.15,35.10,26.7
2026/04/13 15:04:42.66,IMU,-33.20,-3.42,-1018.55,-1.26,1.25,-3.19,13.95,36.75,36.45,26.9
2026/04/13 15:04:42.76,IMU,-33.20,-4.39,-1016.60,-1.31,0.83,1.02,13.05,36.90,34.80,27.0
2026/04/13 15:04:42.86,IMU,-41.02,0.00,-1000.49,-0.01,1.47,-0.02,13.65,36.15,35.10,26.8
2026/04/13 15:04:42.96,IMU,-47.36,0.00,-1021.97,0.60,1.05,3.82,15.15,36.90,34.35,26.9
2026/04/13 15:04:43.06,IMU,-46.39,-9.77,-1019.04,0.72,0.78,0.00,13.05,37.65,34.80,26.8
2026/04/13 15:04:43.16,IMU,-42.97,13.67,-1015.14,-2.02,0.18,0.93,13.05,35.85,36.15,26.9
2026/04/13 15:04:43.26,IMU,-45.90,3.91,-1004.88,1.75,0.03,-2.40,12.60,37.65,35.55,27.0
2026/04/13 15:04:43.36,IMU,-43.46,-7.32,-1012.70,0.65,1.35,-1.74,14.70,37.20,36.00,26.8
2026/04/13 15:04:43.47,IMU,-39.55,-14.16,-1016.60,-0.41,1.11,-1.07,14.25,37.20,34.65,26.6
2026/04/13 15:04:43.57,IMU,-44.92,-0.49,-1020.02,-0.03,2.21,-1.81,13.65,37.35,34.35,26.8
2026/04/13 15:04:43.67,IMU,-53.22,-8.30,-1016.60,-0.94,1.60,-3.78,13.05,35.40,35.25,26.8
2026/04/13 15:04:43.77,IMU,-37.60,-1.46,-1012.70,-0.46,-0.18,0.59,13.50,36.45,35.70,26.9
2026/04/13 15:04:43.87,IMU,-43.46,-11.72,-997.56,1.44,1.12,1.59,13.05,36.60,34.80,26.7
2026/04/13 15:04:43.97,IMU,-41.99,2.44,-1009.77,0.13,0.96,-0.79,14.10,35.85,35.10,27.1
2026/04/13 15:04:44.07,IMU,-59.57,-4.39,-1015.14,-1.15,0.73,1.25,13.65,36.60,35.10,27.0
2026/04/13 15:04:44.17,IMU,-32.71,-5.37,-1005.86,0.97,0.92,-1.54,13.50,36.00,35.70,26.9
2026/04/13 15:04:44.27,IMU,-42.48,0.00,-1008.79,-0.74,-0.27,1.56,13.65,36.15,35.10,26.9
2026/04/13 15:04:44.37,IMU,-36.13,-7.81,-1004.88,1.61,0.12,-0.63,13.65,36.15,33.30,26.8
2026/04/13 15:04:44.47,IMU,-43.95,2.44,-1005.86,0.07,0.63,1.66,15.45,35.25,34.65,27.1
2026/04/13 15:04:44.57,IMU,-40.04,10.25,-1008.30,1.82,1.19,-4.03,13.65,36.15,34.35,26.7
2026/04/13 15:04:44.67,IMU,-54.20,-6.84,-1023.44,0.56,0.37,-0.35,13.35,38.10,33.30,26.8
2026/04/13 15:04:44.77,IMU,-42.97,1.46,-1009.77,-0.05,-1.80,1.51,14.10,38.10,35.85,26.8
2026/04/13 15:04:44.87,IMU,-29.30,0.49,-992.19,0.11,-1.09,1.59,13.05,35.40,34.35,26.9
2026/04/13 15:04:44.97,IMU,-38.57,15.63,-1016.11,0.24,0.73,-0.16,15.00,34.80,34.65,26.8
2026/04/13 15:04:45.07,IMU,-43.46,-2.44,-1009.77,-0.02,0.36,-1.56,14.85,36.15,35.55,27.0
2026/04/13 15:04:45.17,IMU,-47.36,-3.42,-1005.37,-0.73,0.42,-0.61,13.50,35.55,34.20,26.8
2026/04/13 15:04:45.27,IMU,-43.95,-15.63,-1004.39,0.12,-0.13,-0.20,14.10,36.90,36.60,26.8
2026/04/13 15:04:45.37,IMU,-35.64,-0.49,-1018.07,0.74,1.35,0.98,15.00,37.20,35.25,26.8
2026/04/13 15:04:45.47,IMU,-34.67,11.23,-1014.16,0.52,-1.68,-1.37,15.45,35.55,34.65,26.7
2026/04/13 15:04:45.57,IMU,-41.99,0.98,-1007.81,-0.88,-0.37,-0.39,13.65,34.35,35.10,27.0
2026/04/13 15:04:45.67,IMU,-47.85,-4.88,-1015.63,1.47,-0.31,-1.37,14.25,38.25,34.95,26.9
2026/04/13 15:04:45.77,IMU,-40.04,-7.32,-1015.63,1.57,-1.40,-1.38,13.35,35.85,35.55,26.9
2026/04/13 15:04:45.87,IMU,-45.41,-2.44,-1016.60,1.13,-0.40,0.80,13.50,36.00,34.20,26.8
2026/04/13 15:04:45.97,IMU,-47.85,3.91,-1011.23,2.69,0.63,0.85,12.60,35.40,35.55,26.9
2026/04/13 15:04:46.07,IMU,-38.57,-1.95,-1008.79,-0.44,0.44,0.26,13.95,37.20,34.65,27.2
2026/04/13 15:04:46.17,IMU,-38.09,-4.88,-1008.79,-0.31,-0.66,-0.12,13.20,36.45,34.65,26.9
2026/04/13 15:04:46.27,IMU,-35.16,-17.58,-1019.04,0.06,2.06,0.11,13.35,36.15,35.85,27.0
2026/04/13 15:04:46.37,IMU,-35.64,-4.39,-1018.07,-0.59,-0.02,-1.73,13.65,36.90,34.05,26.8
2026/04/13 15:04:46.47,IMU,-42.97,-2.44,-1024.41,-0.10,-0.59,-1.37,13.20,35.55,34.95,27.1
2026/04/13 15:04:46.58,IMU,-51.27,-1.46,-1009.77,0.60,-0.98,3.74,13.50,36.00,36.00,26.7
2026/04/13 15:04:46.68,IMU,-41.99,-7.32,-1016.11,1.56,-1.21,-0.25,13.20,36.45,34.65,26.9
2026/04/13 15:04:46.78,IMU,-48.83,10.25,-1014.65,1.14,1.50,-0.92,13.65,35.40,35.85,26.8
2026/04/13 15:04:46.88,IMU,-52.73,0.98,-1015.14,-0.25,-0.35,-1.58,13.05,36.60,35.10,26.9
2026/04/13 15:04:46.98,IMU,-33.69,-2.93,-1012.70,1.45,-1.19,0.27,12.45,37.50,35.70,26.9
2026/04/13 15:04:47.08,IMU,-40.53,17.09,-1021.00,0.31,2.09,-2.08,13.95,36.00,34.65,26.6
2026/04/13 15:04:47.18,IMU,-55.18,-1.95,-1021.00,-0.45,0.66,-2.93,15.75,36.00,36.45,26.9
2026/04/13 15:04:47.28,IMU,-37.11,-5.86,-1016.60,-1.53,0.40,0.01,15.00,36.00,34.65,26.9
2026/04/13 15:04:47.38,IMU,-49.32,-10.74,-1011.72,-0.37,1.23,-0.15,14.70,37.50,34.95,26.9
2026/04/13 15:04:47.48,IMU,-47.85,0.98,-1019.04,0.24,0.50,0.30,14.25,37.50,34.95,27.0
2026/04/13 15:04:47.58,IMU,-50.29,-16.11,-1014.65,2.13,0.96,0.72,14.40,36.90,34.80,26.9
2026/04/13 15:04:47.68,IMU,-41.99,2.93,-1026.86,-0.27,1.07,0.19,12.75,34.80,34.20,26.9
2026/04/13 15:04:47.78,IMU,-48.83,-12.21,-1020.02,0.34,-0.37,-0.39,13.95,36.00,36.45,27.0
2026/04/13 15:04:47.88,IMU,-41.02,-2.44,-1022.95,0.44,-1.48,0.42,13.05,36.15,36.15,26.8
2026/04/13 15:04:47.98,IMU,-42.97,1.46,-1008.30,0.72,-0.13,1.11,13.65,36.60,34.80,26.5
2026/04/13 15:04:48.08,IMU,-48.34,-5.37,-1015.63,2.43,-0.16,1.85,14.10,38.10,35.10,26.8
2026/04/13 15:04:48.18,IMU,-44.43,0.00,-1014.16,-0.64,-0.20,-2.56,12.60,35.85,34.35,26.7
2026/04/13 15:04:48.28,IMU,-43.46,3.91,-1012.21,0.25,0.24,2.28,13.65,35.40,34.80,27.0
2026/04/13 15:04:48.38,IMU,-36.13,3.42,-1023.44,-0.26,2.19,-1.89,12.60,35.10,34.35,26.8
2026/04/13 15:04:48.48,IMU,-30.27,5.86,-1007.81,1.89,0.41,-1.90,13.05,36.15,36.60,27.0
2026/04/13 15:04:48.58,IMU,-42.97,5.37,-1016.11,1.76,0.60,2.31,14.25,36.00,34.95,26.8
2026/04/13 15:04:48.68,IMU,-37.11,-10.25,-1014.16,-1.47,-0.48,-1.40,14.85,35.40,35.10,26.8
2026/04/13 15:04:48.78,IMU,-49.80,-6.84,-1010.74,-0.51,2.99,1.79,11.55,33.90,37.65,26.8
2026/04/13 15:04:48.88,IMU,-51.27,-15.14,-1010.74,0.02,0.30,3.58,15.15,36.60,35.85,26.9
2026/04/13 15:04:48.98,IMU,-50.29,-5.37,-1016.60,0.15,-0.47,-0.94,14.10,36.15,35.85,26.8
2026/04/13 15:04:49.08,IMU,-48.34,-8.79,-1011.23,0.18,-0.12,0.27,16.35,36.15,34.35,27.0
2026/04/13 15:04:49.18,IMU,-38.57,-11.72,-999.51,-0.50,0.65,3.50,14.25,36.45,34.95,27.1
2026/04/13 15:04:49.28,IMU,-48.34,-1.46,-1019.04,0.93,-0.27,0.97,13.95,37.20,34.65,27.1
2026/04/13 15:04:49.38,IMU,-41.02,17.09,-1009.28,0.28,1.24,0.36,14.70,36.45,33.90,26.8
2026/04/13 15:04:49.48,IMU,-47.36,1.95,-1025.39,0.37,1.53,-1.22,15.45,36.00,33.90,27.1
2026/04/13 15:04:49.59,IMU,-42.48,-5.37,-1034.18,0.21,0.86,-0.51,12.75,36.45,34.95,27.1
2026/04/13 15:04:49.69,IMU,-49.80,-1.95,-999.02,1.23,1.82,1.04,13.95,36.00,34.65,27.1
2026/04/13 15:04:49.79,IMU,-42.48,7.81,-1020.02,-0.51,1.48,0.78,10.35,33.90,39.75,27.1
2026/04/13 15:04:49.89,IMU,-46.88,-5.37,-1013.67,-0.15,1.66,-1.75,13.05,36.90,35.85,27.0
2026/04/13 15:04:49.99,IMU,-51.76,2.93,-1008.79,0.39,-0.25,-2.43,13.95,35.55,33.90,26.7
2026/04/13 15:04:50.09,IMU,-43.46,-3.42,-1012.21,-1.10,-0.02,-0.25,13.50,36.45,34.95,26.9
2026/04/13 15:04:50.19,IMU,-37.60,-8.30,-1017.58,-0.49,0.72,-0.78,13.50,36.00,33.15,27.0
2026/04/13 15:04:50.29,IMU,-49.32,-5.37,-1022.95,-0.47,1.27,0.12,14.40,34.65,35.10,27.0
2026/04/13 15:04:50.39,IMU,-48.83,-4.39,-1016.11,1.76,0.05,1.02,13.50,36.75,33.15,27.0
2026/04/13 15:04:50.49,IMU,-50.78,-12.21,-1012.70,-1.20,1.21,0.05,14.70,36.45,34.65,26.8
2026/04/13 15:04:50.59,IMU,-44.43,-11.23,-1011.72,0.69,2.46,-1.96,14.25,36.00,34.65,26.8
2026/04/13 15:04:50.69,IMU,-49.80,0.49,-1014.16,0.60,-0.08,-1.12,13.65,35.10,34.35,27.1
2026/04/13 15:04:50.80,IMU,-45.90,-15.14,-1018.55,-0.78,-0.72,-1.02,9.90,33.00,40.65,26.9
2026/04/13 15:04:50.90,IMU,-35.16,-0.98,-1010.74,0.70,1.40,1.80,13.20,37.50,34.95,26.7
2026/04/13 15:04:51.00,IMU,-34.67,-11.23,-1018.07,0.24,-0.34,1.04,13.95,37.20,34.20,26.7
2026/04/13 15:04:51.10,IMU,-39.55,-4.39,-1016.11,-1.12,3.20,-0.62,15.15,35.85,34.80,27.0
2026/04/13 15:04:51.20,IMU,-59.08,9.77,-1014.16,-1.85,0.39,1.06,13.35,36.60,33.30,26.8
2026/04/13 15:04:51.30,IMU,-44.43,2.44,-1022.46,-0.77,1.30,3.13,14.40,36.15,34.05,26.7
2026/04/13 15:04:51.40,IMU,-33.69,2.44,-1019.04,0.82,-0.35,-2.16,13.65,36.60,34.35,27.0
2026/04/13 15:04:51.50,IMU,-27.34,2.93,-1017.58,-0.66,0.92,-0.47,14.40,36.60,35.55,27.0
2026/04/13 15:04:51.60,IMU,-39.06,-1.95,-1025.88,0.57,-0.49,-0.71,13.35,36.60,33.60,27.0
2026/04/13 15:04:51.70,IMU,-42.97,2.44,-1014.65,2.01,0.92,-0.18,13.35,36.90,33.60,27.1
2026/04/13 15:04:51.80,IMU,-32.71,4.39,-1013.18,-1.24,1.51,3.39,13.50,36.45,35.70,27.2
2026/04/13 15:04:51.90,IMU,-48.34,2.93,-1014.16,0.12,1.84,0.22,13.95,37.20,35.25,27.0
2026/04/13 15:04:52.00,IMU,-50.78,-3.91,-1010.25,0.44,-1.02,0.71,13.35,36.90,33.00,26.8
2026/04/13 15:04:52.10,IMU,-50.29,-5.86,-1005.86,1.64,2.33,1.28,14.10,36.60,34.80,27.0
2026/04/13 15:04:52.20,IMU,-48.34,-4.88,-1024.90,-0.27,1.10,-0.45,12.75,36.45,34.95,26.9
2026/04/13 15:04:52.30,IMU,-58.59,-3.91,-1006.35,1.15,0.40,1.90,14.70,37.20,34.95,26.7
2026/04/13 15:04:52.40,IMU,-44.43,3.42,-1021.00,1.89,-0.58,0.25,14.10,36.15,35.10,26.8
2026/04/13 15:04:52.50,IMU,-39.55,-9.77,-1025.39,-1.24,-0.91,-1.59,13.35,35.40,33.60,26.7
2026/04/13 15:04:52.60,IMU,-43.95,8.30,-1024.90,-0.82,1.92,0.74,15.00,37.50,34.65,27.0
2026/04/13 15:04:52.70,IMU,-41.50,-1.95,-1012.70,0.64,0.44,-0.25,12.75,36.00,34.20,27.1
2026/04/13 15:04:52.80,IMU,-38.09,-13.67,-1010.74,0.04,-0.05,2.76,13.35,35.85,34.80,27.1
2026/04/13 15:04:52.90,IMU,-44.43,-4.39,-1015.14,-0.99,0.20,1.46,13.50,37.20,34.20,26.9
2026/04/13 15:04:53.00,IMU,-41.50,-11.72,-1005.37,0.41,-0.66,-1.54,13.35,36.90,33.30,27.0
2026/04/13 15:04:53.10,IMU,-38.09,-9.28,-1008.79,0.30,-1.20,0.07,14.25,36.00,34.95,26.8
2026/04/13 15:04:53.20,IMU,-47.85,0.98,-1021.48,2.40,0.11,-0.04,13.95,36.75,35.25,26.7
2026/04/13 15:04:53.30,IMU,-38.57,-3.91,-1029.79,-0.55,0.81,1.18,13.20,36.75,35.25,27.0
2026/04/13 15:04:53.41,IMU,-39.55,-10.25,-1021.00,1.87,0.38,-0.14,13.95,37.20,34.95,27.0
2026/04/13 15:04:53.51,IMU,-49.32,6.35,-1017.09,-0.69,1.85,0.56,14.25,35.55,33.90,26.9
2026/04/13 15:04:53.61,IMU,-34.18,-10.74,-1016.60,0.68,-0.79,0.96,12.75,38.25,34.20,26.8
2026/04/13 15:04:53.71,IMU,-36.13,3.42,-1009.77,0.31,3.14,-1.02,13.65,36.60,34.80,26.8
2026/04/13 15:04:53.81,IMU,-41.99,-10.74,-1018.55,-0.12,2.13,1.22,15.15,35.40,35.55,27.2
2026/04/13 15:04:53.91,IMU,-43.46,3.91,-1014.16,-0.26,0.77,-0.53,14.70,35.55,34.20,26.8
2026/04/13 15:04:54.01,IMU,-41.99,-31.25,-993.16,1.19,0.64,1.11,14.85,36.15,35.55,27.2
2026/04/13 15:04:54.11,IMU,-41.02,-10.74,-1014.16,-0.20,0.79,-0.89,12.00,36.45,33.45,26.6
2026/04/13 15:04:54.21,IMU,-41.99,0.49,-1013.18,1.44,1.13,-1.74,13.20,37.20,34.20,26.9
2026/04/13 15:04:54.31,IMU,-46.39,0.49,-1025.39,-0.34,0.00,-1.76,13.65,36.60,33.60,26.9
2026/04/13 15:04:54.41,IMU,-36.62,-1.95,-1025.39,-0.31,0.31,1.17,12.00,36.75,34.95,26.9
2026/04/13 15:04:54.51,IMU,-43.95,-10.25,-1026.37,-0.05,0.05,1.21,13.35,36.60,34.35,26.9
2026/04/13 15:04:54.61,IMU,-26.86,10.74,-1008.79,-0.20,0.11,0.05,13.35,34.65,35.10,26.9
2026/04/13 15:04:54.71,IMU,-44.92,-12.70,-1006.35,0.59,-0.95,1.01,13.50,36.45,34.20,27.0
2026/04/13 15:04:54.81,IMU,-37.11,2.93,-1013.67,-0.31,0.76,-1.00,13.50,36.75,34.20,27.0
2026/04/13 15:04:54.91,IMU,-52.25,-8.30,-1021.00,0.81,0.67,2.11,13.65,35.10,35.10,27.0
2026/04/13 15:04:55.01,IMU,-52.25,-4.88,-1010.25,-0.62,-0.09,-1.38,13.65,35.85,34.05,27.0
2026/04/13 15:04:55.11,IMU,-45.90,-13.18,-1008.30,-0.32,0.24,-3.03,13.35,36.60,34.80,27.0
2026/04/13 15:04:55.21,IMU,-47.85,6.35,-1016.11,2.54,0.24,1.39,15.45,37.20,33.45,27.0
2026/04/13 15:04:55.31,IMU,-45.90,8.30,-1018.07,1.60,1.30,4.69,13.65,36.60,35.85,27.1
2026/04/13 15:04:55.41,IMU,-44.92,6.35,-1020.51,1.22,-1.46,0.37,12.75,35.55,34.20,26.7
2026/04/13 15:04:55.51,IMU,-47.85,-19.53,-1013.18,-1.23,-0.25,-2.40,13.35,37.35,34.35,26.9
2026/04/13 15:04:55.61,IMU,-47.36,8.79,-1012.70,0.54,-1.53,0.40,15.45,35.55,33.45,27.0
2026/04/13 15:04:55.71,IMU,-44.43,-6.35,-1014.16,1.40,-0.08,-0.06,12.75,36.45,34.65,26.8
2026/04/13 15:04:55.81,IMU,-37.11,-19.04,-1022.46,-0.46,1.57,-0.65,13.65,38.10,34.05,27.0
2026/04/13 15:04:55.91,IMU,-47.85,-4.88,-1023.93,0.24,0.76,-2.15,13.95,35.55,34.05,27.0
2026/04/13 15:04:56.01,IMU,-41.02,-11.23,-1010.74,0.46,0.19,0.96,13.35,34.65,34.05,26.9
2026/04/13 15:04:56.11,IMU,-37.60,8.30,-1005.86,-0.20,-0.87,-0.41,14.40,34.65,33.60,27.1
2026/04/13 15:04:56.21,IMU,-28.32,-7.32,-1011.23,1.05,-0.24,-1.52,14.25,35.25,35.70,26.8
2026/04/13 15:04:56.31,IMU,-50.78,3.91,-1022.46,0.71,1.24,-1.41,13.95,35.25,34.20,26.9
2026/04/13 15:04:56.41,IMU,-46.39,2.93,-1018.55,0.28,1.98,1.60,13.35,35.85,35.10,26.9
2026/04/13 15:04:56.52,IMU,-47.36,-5.37,-1013.18,1.40,-1.05,-0.76,13.35,36.90,35.10,27.1
2026/04/13 15:04:56.62,IMU,-36.13,-13.67,-1011.23,-1.32,1.40,-0.08,12.75,34.80,34.20,26.8
2026/04/13 15:04:56.72,IMU,-50.78,-0.98,-994.63,-1.10,0.29,-2.05,13.35,35.40,34.05,27.0
2026/04/13 15:04:56.82,IMU,-47.36,-0.49,-1008.30,-2.04,-1.05,0.02,15.15,36.15,33.00,26.8
2026/04/13 15:04:56.92,IMU,-32.71,-1.46,-994.14,-1.09,0.86,-0.90,12.45,37.20,34.20,27.1
2026/04/13 15:04:57.02,IMU,-45.90,-9.28,-1015.14,1.66,-0.05,3.63,14.40,36.15,34.80,26.7
2026/04/13 15:04:57.12,IMU,-54.20,0.49,-1011.72,-1.97,-0.15,1.69,13.65,36.60,33.30,26.8
2026/04/13 15:04:57.22,IMU,-38.09,6.84,-1021.48,-0.59,0.61,-4.40,13.35,36.15,35.85,27.0
2026/04/13 15:04:57.32,IMU,-47.85,6.35,-1019.04,-1.37,1.16,-0.31,12.45,35.25,34.65,26.9
2026/04/13 15:04:57.42,IMU,-45.41,6.35,-1008.30,-2.44,-0.21,-1.58,14.10,36.15,33.30,27.2
2026/04/13 15:04:57.52,IMU,-47.85,3.42,-1027.34,1.90,-1.53,-1.28,14.85,36.60,34.35,26.9
2026/04/13 15:04:57.62,IMU,-42.97,-5.86,-1025.39,1.00,0.09,2.91,13.50,36.45,34.65,26.8
2026/04/13 15:04:57.72,IMU,-47.36,-4.39,-1019.04,1.24,-0.08,1.50,13.05,35.85,34.35,26.9
2026/04/13 15:04:57.82,IMU,-44.92,-14.16,-1009.28,0.50,0.60,2.36,13.50,36.75,34.20,27.1
2026/04/13 15:04:57.92,IMU,-40.04,-8.79,-1016.60,-0.87,-0.23,0.42,11.10,34.65,38.40,26.9
2026/04/13 15:04:58.02,IMU,-47.36,0.98,-1018.07,0.30,0.55,0.51,13.95,35.55,33.90,26.9
2026/04/13 15:04:58.12,IMU,-41.02,-1.46,-1005.86,0.40,0.73,0.92,13.20,36.00,35.25,27.2
2026/04/13 15:04:58.22,IMU,-55.18,-8.30,-1010.74,-2.31,-0.74,-0.09,12.45,36.00,34.95,27.0
2026/04/13 15:04:58.32,IMU,-48.34,-5.37,-1000.98,0.86,0.92,0.17,13.65,37.35,34.35,27.1
2026/04/13 15:04:58.42,IMU,-44.43,3.91,-1024.41,-0.38,1.29,1.21,12.75,34.80,33.90,26.9
2026/04/13 15:04:58.52,IMU,-34.67,10.25,-1019.53,0.07,-0.82,-1.15,14.10,36.60,33.30,26.8
2026/04/13 15:04:58.62,IMU,-52.25,-7.32,-1022.46,1.86,-1.47,-2.16,13.35,36.60,34.35,26.6
2026/04/13 15:04:58.72,IMU,-32.23,-7.32,-1018.55,-0.64,1.60,-0.06,12.60,36.90,34.80,26.9
2026/04/13 15:04:58.82,IMU,-41.02,-3.91,-1012.70,-0.93,1.15,1.17,14.85,36.15,35.55,26.8
2026/04/13 15:04:58.92,IMU,-45.41,2.93,-1015.63,-0.64,1.29,2.71,12.45,33.75,36.45,26.8
2026/04/13 15:04:59.02,IMU,-46.88,-12.21,-1022.46,0.63,0.47,0.29,14.40,35.85,34.05,26.8
2026/04/13 15:04:59.12,IMU,-31.74,-6.35,-1014.16,-0.88,0.73,-0.14,13.50,35.25,34.65,26.9
2026/04/13 15:04:59.22,IMU,-43.46,-2.93,-1007.81,0.05,-0.80,2.47,15.00,36.00,34.65,27.2
2026/04/13 15:04:59.32,IMU,-44.92,-3.91,-1010.74,1.11,-0.92,1.35,14.25,37.20,34.65,27.0
2026/04/13 15:04:59.42,IMU,-37.60,12.70,-1017.09,0.32,-0.83,-0.67,14.40,35.40,34.80,26.9
2026/04/13 15:04:59.53,IMU,-53.22,-1.46,-1014.16,-0.65,0.43,-4.76,13.20,36.00,33.15,26.7
2026/04/13 15:04:59.63,IMU,-38.09,5.86,-1022.46,0.34,-0.77,-0.21,14.10,36.60,34.35,27.0
2026/04/13 15:04:59.73,IMU,-48.83,6.84,-1006.84,1.08,0.23,1.73,14.85,36.60,34.05,26.7
2026/04/13 15:04:59.83,IMU,-47.36,-3.42,-1019.04,0.43,-1.35,-0.17,14.25,36.45,34.20,27.0
2026/04/13 15:04:59.94,IMU,-42.97,-3.42,-998.05,0.56,-1.12,1.17,13.35,34.35,35.85,27.0
2026/04/13 15:05:00.04,IMU,-57.62,3.42,-997.56,0.37,0.09,0.35,13.50,36.75,34.65,27.1
2026/04/13 15:05:00.14,IMU,-30.76,-2.44,-1021.48,-0.16,-0.05,2.42,13.50,36.00,34.20,26.9
2026/04/13 15:05:00.24,IMU,-40.04,-7.32,-1020.02,-1.38,1.15,0.16,11.85,36.90,34.80,27.0
2026/04/13 15:05:00.34,IMU,-42.97,-15.14,-1016.60,1.52,-0.34,-0.12,15.00,35.55,34.95,27.1
2026/04/13 15:05:00.44,IMU,-38.57,0.00,-1006.84,0.86,-0.90,-0.79,13.50,36.45,34.65,27.0
2026/04/13 15:05:00.54,IMU,-29.30,-8.79,-1024.41,-0.34,1.14,-1.29,14.25,35.55,33.45,26.7
2026/04/13 15:05:00.64,IMU,-38.57,5.86,-1019.04,-0.25,2.59,3.17,14.10,35.40,34.35,27.1
2026/04/13 15:05:00.74,IMU,-26.86,5.37,-1021.00,-0.46,1.58,1.04,13.35,35.40,35.10,26.8
2026/04/13 15:05:00.84,IMU,-51.27,1.95,-1014.16,-0.04,1.70,0.82,14.10,36.90,35.10,26.7
2026/04/13 15:05:00.94,IMU,-42.97,-6.84,-1011.72,1.76,-0.58,-0.75,13.50,37.20,33.90,27.0
2026/04/13 15:05:01.04,IMU,-40.53,3.42,-1010.25,-0.04,-1.03,0.78,13.65,35.85,34.05,27.1
2026/04/13 15:05:01.14,IMU,-50.78,-0.98,-1017.58,0.68,-1.64,-1.56,13.20,35.55,35.25,26.8
2026/04/13 15:05:01.24,IMU,-42.97,3.91,-1014.16,-0.59,-0.91,0.06,13.95,35.55,34.65,27.0
2026/04/13 15:05:01.34,IMU,-46.39,0.98,-1015.14,0.66,0.38,0.05,14.10,36.15,36.15,26.8
2026/04/13 15:05:01.44,IMU,-61.52,-11.72,-1016.60,-1.46,-1.00,-0.71,13.65,36.15,32.55,26.8
2026/04/13 15:05:01.54,IMU,-44.43,2.44,-1024.90,-1.27,-1.39,-2.42,14.25,37.20,34.20,27.0
2026/04/13 15:05:01.64,IMU,-41.02,0.00,-1019.04,-0.21,0.50,-1.41,14.25,36.45,34.95,27.0
2026/04/13 15:05:01.74,IMU,-33.20,0.98,-1013.18,0.02,1.77,2.21,13.20,35.25,34.20,26.9
2026/04/13 15:05:01.84,IMU,-48.83,0.00,-1020.51,0.93,0.63,1.28,13.50,36.75,32.70,26.9
2026/04/13 15:05:01.94,IMU,-39.06,-9.28,-1011.72,-1.83,3.11,-0.36,14.40,36.15,35.10,27.1
2026/04/13 15:05:02.04,IMU,-36.13,1.95,-1017.09,0.24,-0.43,2.30,14.70,36.75,33.45,27.3
2026/04/13 15:05:02.14,IMU,-54.69,-14.16,-1018.07,-0.22,0.47,1.40,14.40,36.15,34.35,26.9
2026/04/13 15:05:02.24,IMU,-50.29,-13.67,-1006.35,-0.81,1.22,1.55,14.25,35.25,34.65,26.7
2026/04/13 15:05:02.34,IMU,-39.55,-8.30,-1019.53,0.84,2.07,3.10,12.45,36.75,35.70,27.0
2026/04/13 15:05:02.44,IMU,-47.36,-6.35,-1012.21,-0.51,0.88,4.24,13.05,36.60,35.55,26.9
2026/04/13 15:05:02.54,IMU,-33.69,-4.39,-1008.79,-1.22,-0.92,1.39,14.70,36.45,33.15,27.1
2026/04/13 15:05:02.64,IMU,-50.78,-1.95,-1019.53,1.20,1.28,-1.05,13.20,35.55,35.25,27.1
2026/04/13 15:05:02.74,IMU,-43.46,-0.49,-1015.14,0.24,0.19,-0.01,14.25,36.00,34.20,27.2
2026/04/13 15:05:02.84,IMU,-34.18,-3.42,-1027.83,-0.93,0.29,-2.01,13.20,36.45,34.95,27.0
2026/04/13 15:05:02.95,IMU,-38.09,1.46,-1011.72,0.01,1.51,-0.88,13.20,36.00,34.20,26.9
2026/04/13 15:05:03.05,IMU,-39.55,5.37,-1011.23,1.04,1.07,-0.23,13.65,38.40,34.80,26.7
2026/04/13 15:05:03.15,IMU,-40.53,4.39,-1017.09,0.80,1.08,-1.04,13.65,37.35,34.80,27.0
2026/04/13 15:05:03.25,IMU,-39.55,-8.79,-1021.48,0.09,-0.60,-1.06,13.35,36.15,33.60,27.0
2026/04/13 15:05:03.35,IMU,-40.04,2.44,-1009.77,0.98,2.48,-1.50,13.05,36.60,34.35,26.8
2026/04/13 15:05:03.45,IMU,-36.13,-5.37,-1014.65,0.71,2.09,0.26,14.25,36.45,34.20,26.9
2026/04/13 15:05:03.55,IMU,-35.16,2.44,-998.54,0.33,0.82,-1.60,14.25,37.50,35.25,27.0
2026/04/13 15:05:03.65,IMU,-48.34,-4.88,-986.33,-1.32,-0.36,-1.07,14.10,36.90,35.10,27.3
2026/04/13 15:05:03.75,IMU,-39.06,-6.84,-1016.60,-0.15,-1.44,-3.47,13.95,36.00,35.25,26.8
2026/04/13 15:05:03.85,IMU,-53.22,-5.86,-1021.48,0.89,0.89,3.39,13.95,36.45,34.20,27.1
2026/04/13 15:05:03.95,IMU,-37.11,-6.84,-1015.63,-0.79,-0.31,-1.38,13.20,35.55,34.95,27.1
2026/04/13 15:05:04.05,IMU,-30.27,-9.28,-1009.77,-0.42,0.82,0.08,12.75,36.00,33.90,27.0
2026/04/13 15:05:04.15,IMU,-45.90,-0.49,-1005.37,-0.03,-0.46,1.33,12.60,35.85,34.80,26.8
2026/04/13 15:05:04.25,IMU,-47.85,-5.86,-1025.88,-0.69,0.56,0.42,14.70,35.55,34.95,26.9
2026/04/13 15:05:04.35,IMU,-49.80,1.46,-1000.00,0.11,1.06,0.79,13.35,34.35,34.05,27.2
2026/04/13 15:05:04.45,IMU,-48.34,-6.84,-1026.37,0.40,-1.22,2.96,13.65,35.40,35.10,26.8
2026/04/13 15:05:04.55,IMU,-44.43,-11.23,-1013.18,-0.27,0.97,-0.27,13.50,36.00,33.90,27.0
2026/04/13 15:05:04.65,IMU,-38.57,-2.93,-1009.28,0.98,-1.90,-0.36,13.05,36.15,35.55,27.5
2026/04/13 15:05:04.75,IMU,-39.55,-2.44,-1009.77,2.47,1.84,-1.08,13.05,36.60,33.30,27.0
2026/04/13 15:05:04.85,IMU,-45.90,-3.42,-1008.79,0.63,-0.56,-0.98,13.65,36.60,34.80,27.2
2026/04/13 15:05:04.95,IMU,-46.39,-9.28,-1009.77,-1.98,0.03,0.19,14.40,36.90,33.30,27.0
2026/04/13 15:05:05.05,IMU,-44.43,12.70,-1018.07,0.83,1.38,1.33,13.35,36.15,35.10,26.8
2026/04/13 15:05:05.15,IMU,-49.80,1.46,-1010.74,1.50,0.23,0.58,14.25,36.75,35.25,27.0
2026/04/13 15:05:05.25,IMU,-43.95,-4.39,-1018.07,0.41,-0.63,1.76,13.35,36.60,34.05,27.1
2026/04/13 15:05:05.35,IMU,-40.53,-1.46,-1009.77,1.16,-1.90,-0.78,12.60,36.90,34.35,27.0
2026/04/13 15:05:05.45,IMU,-32.23,0.49,-1011.72,1.31,1.76,-0.10,14.10,36.60,36.15,26.9
2026/04/13 15:05:05.55,IMU,-47.85,-1.95,-1008.79,-1.30,0.91,2.54,13.65,36.15,34.05,26.8
2026/04/13 15:05:05.65,IMU,-39.55,2.93,-1011.23,-1.39,-2.33,0.81,13.95,37.20,34.95,27.0
2026/04/13 15:05:05.75,IMU,-36.62,5.37,-1019.53,-0.73,0.37,0.00,13.35,35.85,33.60,27.1
2026/04/13 15:05:05.85,IMU,-35.16,9.28,-1010.25,0.35,2.08,1.89,14.25,36.75,35.25,27.2
2026/04/13 15:05:05.96,IMU,-36.13,3.91,-1015.14,-0.92,0.69,4.37,14.10,35.40,33.00,26.8
2026/04/13 15:05:06.06,IMU,-42.97,1.95,-1018.07,-1.13,-0.84,3.73,14.10,36.15,34.35,27.1
2026/04/13 15:05:06.16,IMU,-50.29,-2.44,-1012.21,0.33,0.88,0.92,14.25,36.00,34.95,27.0
2026/04/13 15:05:06.26,IMU,-42.48,0.00,-1015.14,1.61,0.76,0.45,11.85,36.15,35.55,26.8
2026/04/13 15:05:06.36,IMU,-45.41,8.30,-1017.09,0.30,0.87,-1.07,13.35,35.85,34.35,26.7
2026/04/13 15:05:06.46,IMU,-50.29,-1.95,-1015.14,2.38,0.71,0.65,13.95,37.20,34.65,27.0
2026/04/13 15:05:06.56,IMU,-33.69,3.42,-1034.18,0.00,-0.65,-1.12,13.95,36.45,34.20,27.3
2026/04/13 15:05:06.66,IMU,-33.69,1.46,-1005.37,0.02,-1.24,-0.44,13.35,36.15,34.35,27.0
2026/04/13 15:05:06.76,IMU,-36.13,-6.84,-1015.14,0.65,-0.34,-2.73,13.05,36.60,36.15,26.7
2026/04/13 15:05:06.86,IMU,-39.55,-5.37,-1014.65,0.16,1.73,-2.31,13.65,36.15,33.60,26.7
2026/04/13 15:05:06.96,IMU,-39.55,-8.30,-1030.27,0.56,0.58,-0.24,14.40,36.60,34.80,27.0
2026/04/13 15:05:07.06,IMU,-45.41,-3.42,-1004.39,-2.05,1.37,4.53,11.55,36.60,33.60,26.9
2026/04/13 15:05:07.16,IMU,-53.22,-15.14,-1005.86,1.24,0.50,4.20,12.30,35.85,34.35,27.3
2026/04/13 15:05:07.26,IMU,-38.09,-22.46,-1021.00,-1.36,1.11,-0.10,14.10,36.60,35.55,27.0
2026/04/13 15:05:07.36,IMU,-35.16,-10.74,-1022.46,0.02,1.86,2.46,13.65,35.40,35.10,27.1
2026/04/13 15:05:07.46,IMU,-42.97,-10.25,-1017.09,-0.39,1.64,-0.24,13.65,37.35,35.55,27.3
2026/04/13 15:05:07.56,IMU,-42.97,0.00,-1021.00,0.31,-1.12,-0.94,14.40,35.85,34.80,27.2
2026/04/13 15:05:07.66,IMU,-32.71,-2.44,-1003.91,0.72,0.05,0.12,13.95,36.75,34.65,27.2
2026/04/13 15:05:07.76,IMU,-34.67,2.44,-1013.67,-0.23,-2.31,1.76,13.50,36.00,33.15,27.2
2026/04/13 15:05:07.86,IMU,-45.41,-8.30,-1022.46,1.11,-0.69,0.89,13.95,36.75,34.20,27.2
2026/04/13 15:05:07.96,IMU,-53.71,-6.35,-1011.23,1.22,-0.69,1.75,13.35,35.40,35.10,26.9
2026/04/13 15:05:08.06,IMU,-39.06,-11.23,-1016.60,-1.15,0.35,-1.95,11.55,34.65,36.90,27.1
2026/04/13 15:05:08.16,IMU,-45.90,-3.42,-1010.25,1.27,-0.26,-2.06,14.40,36.90,35.55,27.0
2026/04/13 15:05:08.26,IMU,-48.34,-4.39,-1022.95,0.21,-0.96,0.90,13.20,36.45,35.25,27.0
2026/04/13 15:05:08.36,IMU,-36.62,-6.84,-1004.39,0.85,0.10,-2.39,14.25,36.00,34.65,27.2
2026/04/13 15:05:08.46,IMU,-46.88,-2.44,-1021.48,-0.55,-1.77,3.55,13.20,35.55,34.65,27.2
2026/04/13 15:05:08.56,IMU,-48.34,-14.16,-1010.74,-0.31,-2.01,-1.02,14.10,35.85,35.10,27.0
2026/04/13 15:05:08.66,IMU,-52.73,1.46,-1025.88,-0.71,0.73,1.60,13.50,38.25,35.70,27.0
2026/04/13 15:05:08.76,IMU,-41.50,7.32,-1019.04,-0.37,1.68,2.26,13.20,36.00,34.65,27.0
2026/04/13 15:05:08.86,IMU,-36.13,-11.23,-1022.95,-0.85,-0.21,1.79,14.25,36.45,34.65,26.9
2026/04/13 15:05:08.96,IMU,-44.92,4.88,-1009.28,0.44,-0.86,1.19,14.10,36.60,33.30,27.2
2026/04/13 15:05:09.07,IMU,-34.18,-3.42,-1024.41,-0.40,-1.37,-1.18,12.45,37.50,34.95,27.1
2026/04/13 15:05:09.17,IMU,-35.64,-1.95,-1008.30,1.79,0.15,0.46,15.15,34.65,35.85,26.7
2026/04/13 15:05:09.27,IMU,-32.23,-3.42,-1012.21,-0.68,-0.08,-1.04,13.20,36.45,34.65,27.1
2026/04/13 15:05:09.37,IMU,-46.88,-10.74,-1012.21,0.07,-0.82,-0.85,14.10,36.15,35.10,26.9
2026/04/13 15:05:09.47,IMU,-41.99,6.35,-1016.60,-1.21,-0.12,-4.77,13.20,36.00,34.65,26.8
2026/04/13 15:05:09.57,IMU,-45.41,-2.44,-1000.00,-0.44,-1.02,-0.80,13.20,36.00,35.25,27.1
2026/04/13 15:05:09.67,IMU,-41.50,-0.49,-1006.84,2.38,-0.03,-2.01,12.30,36.60,35.10,27.0
2026/04/13 15:05:09.77,IMU,-40.53,-10.25,-1030.76,-0.53,-0.27,0.86,11.85,34.65,33.30,27.1
2026/04/13 15:05:09.87,IMU,-45.90,-8.79,-1010.74,1.94,0.09,-3.32,13.35,36.15,35.10,27.3
2026/04/13 15:05:09.97,IMU,-35.64,12.70,-1011.23,-0.99,0.73,-0.74,14.25,35.55,34.95,27.0
2026/04/13 15:05:10.07,IMU,-51.27,-7.32,-1014.16,0.01,1.53,2.35,14.10,34.65,35.55,26.9
2026/04/13 15:05:10.17,IMU,-32.71,-0.49,-1021.48,0.21,1.90,1.35,13.20,36.45,34.95,27.0
2026/04/13 15:05:10.27,IMU,-54.20,-7.32,-1017.58,-0.08,1.43,-0.08,13.05,36.15,33.60,27.1
2026/04/13 15:05:10.37,IMU,-46.39,-4.39,-1017.58,-0.55,-1.53,-1.96,14.25,36.75,33.90,27.1
2026/04/13 15:05:10.47,IMU,-44.43,6.84,-1026.86,0.55,0.29,-4.31,11.55,36.15,34.05,27.0
2026/04/13 15:05:10.58,IMU,-35.16,-4.39,-1020.02,2.08,-0.30,-1.59,15.45,36.00,34.95,27.1
2026/04/13 15:05:10.68,IMU,-46.88,-9.28,-1020.02,-0.95,0.95,2.82,14.40,35.85,34.35,26.8
2026/04/13 15:05:10.78,IMU,-55.66,4.39,-1021.00,0.24,0.08,0.60,13.50,36.00,34.20,26.8
2026/04/13 15:05:10.88,IMU,-46.39,-6.84,-1017.09,-0.17,0.92,2.15,14.10,36.15,34.35,27.3
2026/04/13 15:05:10.98,IMU,-44.92,-0.49,-1018.55,0.45,-0.11,-0.05,13.50,37.20,33.90,26.9
2026/04/13 15:05:11.08,IMU,-42.48,-5.86,-1003.91,0.43,0.60,-3.14,15.45,36.45,33.45,27.1
2026/04/13 15:05:11.18,IMU,-25.88,-3.91,-1026.86,0.11,-0.93,-2.53,12.75,36.45,33.90,27.2
2026/04/13 15:05:11.28,IMU,-50.29,0.98,-1019.04,-0.66,0.95,-0.21,11.70,35.55,35.25,27.1
2026/04/13 15:05:11.38,IMU,-41.99,-1.46,-1022.95,0.02,1.03,0.75,15.45,36.75,34.95,27.1
2026/04/13 15:05:11.48,IMU,-50.78,-3.42,-1006.84,0.30,0.02,2.42,13.65,36.60,34.35,27.2
2026/04/13 15:05:11.58,IMU,-48.34,3.42,-1002.44,-1.03,0.18,1.30,13.65,36.60,35.10,27.0
2026/04/13 15:05:11.68,IMU,-57.62,1.46,-1013.18,0.63,-1.53,-1.80,13.65,36.15,34.35,26.9
2026/04/13 15:05:11.78,IMU,-37.60,-2.44,-1014.16,0.76,1.83,0.69,14.10,36.15,34.80,26.9
2026/04/13 15:05:11.88,IMU,-28.32,4.88,-1031.74,0.37,-2.27,-0.84,13.05,35.40,35.10,26.9
2026/04/13 15:05:11.98,IMU,-47.36,7.32,-1012.21,-0.11,-1.20,-1.31,14.25,34.80,33.90,27.2
2026/04/13 15:05:12.08,IMU,-36.13,-6.84,-1022.95,1.50,1.47,0.99,13.95,36.00,33.15,26.8
2026/04/13 15:05:12.18,IMU,-37.60,5.86,-1010.74,0.34,1.55,0.53,13.95,36.75,36.45,27.1
2026/04/13 15:05:12.28,IMU,-21.00,-12.70,-1025.88,1.32,1.36,2.08,14.70,35.55,35.25,27.2
2026/04/13 15:05:12.38,IMU,-50.78,3.91,-1007.32,-0.21,-0.08,-5.82,13.20,36.75,33.90,27.1
2026/04/13 15:05:12.48,IMU,-39.55,-3.91,-1013.18,-0.40,1.11,1.15,13.95,36.00,34.20,27.2
2026/04/13 15:05:12.58,IMU,-53.71,-5.86,-1014.16,0.69,-2.90,-2.03,13.95,36.45,33.90,27.0
2026/04/13 15:05:12.68,IMU,-42.97,1.95,-1003.91,0.03,-0.04,1.36,13.05,36.15,34.05,26.8
2026/04/13 15:05:12.78,IMU,-47.85,3.42,-1021.00,1.17,1.33,-1.63,14.25,37.50,34.65,27.1
2026/04/13 15:05:12.88,IMU,-43.46,4.88,-1015.14,-0.12,2.23,-0.96,13.95,36.00,34.95,26.9
2026/04/13 15:05:12.98,IMU,-47.85,-6.84,-1016.60,-1.02,1.35,2.12,15.45,37.95,34.65,27.2
2026/04/13 15:05:13.08,IMU,-40.04,-9.28,-1009.77,-0.02,1.08,-0.59,14.85,35.85,35.55,26.9
2026/04/13 15:05:13.18,IMU,-49.32,-1.95,-1016.11,0.67,-0.09,2.55,14.40,36.90,35.55,27.0
2026/04/13 15:05:13.28,IMU,-46.39,-5.37,-1012.70,-0.58,-0.66,3.42,13.35,37.35,35.10,27.1
2026/04/13 15:05:13.38,IMU,-41.99,-3.91,-1016.60,-1.25,-1.12,0.53,14.10,37.35,34.35,26.8
2026/04/13 15:05:13.49,IMU,-51.27,-2.44,-1006.35,1.46,0.87,2.43,14.10,35.40,35.10,27.1
2026/04/13 15:05:13.59,IMU,-41.02,10.25,-1014.16,-0.29,0.40,1.45,14.85,36.15,34.80,26.7
2026/04/13 15:05:13.69,IMU,-45.90,-0.98,-1003.42,1.00,0.51,-2.73,15.00,37.20,35.25,27.1
2026/04/13 15:05:13.79,IMU,-40.04,-1.46,-1015.63,-0.78,-0.30,0.26,13.95,36.00,35.70,27.3
2026/04/13 15:05:13.89,IMU,-40.04,-10.74,-1014.65,1.15,1.61,-1.49,13.95,36.45,35.70,26.9
2026/04/13 15:05:13.99,IMU,-45.90,-3.42,-1007.32,-0.75,1.74,-0.34,14.70,36.75,35.25,26.9
2026/04/13 15:05:14.09,IMU,-45.41,0.49,-1014.16,-0.44,-1.06,0.57,13.05,36.60,35.10,27.3
2026/04/13 15:05:14.19,IMU,-38.09,-16.11,-1009.28,-1.40,-0.88,-2.51,14.25,38.70,35.70,27.0
2026/04/13 15:05:14.29,IMU,-35.64,-13.67,-1013.18,-0.38,-0.60,-1.75,14.40,36.90,34.05,27.1
2026/04/13 15:05:14.39,IMU,-47.36,-6.35,-1022.95,-1.43,-0.03,1.43,13.20,36.00,35.25,27.1
2026/04/13 15:05:14.49,IMU,-51.27,-1.46,-1010.25,-2.11,-0.18,2.15,13.65,36.60,35.10,26.9
2026/04/13 15:05:14.59,IMU,-47.85,1.46,-1028.81,-0.50,0.92,1.36,14.25,37.95,34.65,27.1
2026/04/13 15:05:14.69,IMU,-40.04,6.35,-1014.16,0.82,1.01,-1.73,14.40,37.35,34.80,26.9
2026/04/13 15:05:14.79,IMU,-33.69,7.32,-1021.97,0.00,0.57,0.75,14.70,36.75,34.95,27.1
2026/04/13 15:05:14.89,IMU,-37.60,-2.93,-1017.09,0.25,-2.21,0.95,13.50,36.45,34.65,26.8
2026/04/13 15:05:14.99,IMU,-40.04,-1.95,-1008.30,-0.77,0.01,-2.70,13.50,35.25,35.70,27.0
2026/04/13 15:05:15.09,IMU,-51.27,-11.23,-1000.98,0.92,1.17,-1.10,13.20,36.45,35.25,27.1
2026/04/13 15:05:15.19,IMU,-39.06,5.86,-1025.88,1.02,0.26,-3.12,13.50,36.45,37.05,27.2
2026/04/13 15:05:15.29,IMU,-43.95,-4.88,-1015.63,-0.78,0.24,2.37,15.00,36.75,34.65,26.8
2026/04/13 15:05:15.39,IMU,-41.50,-0.49,-1026.37,0.17,0.83,-2.08,14.85,36.60,34.35,27.0
2026/04/13 15:05:15.49,IMU,-46.88,1.95,-1020.02,-0.21,2.04,-2.54,14.25,36.75,34.65,27.2
2026/04/13 15:05:15.59,IMU,-46.88,-0.49,-1008.30,-2.58,1.40,0.27,13.65,35.10,35.55,27.3
2026/04/13 15:05:15.69,IMU,-42.48,-2.93,-1015.63,1.44,1.49,-0.80,14.10,36.60,34.35,27.2
2026/04/13 15:05:15.79,IMU,-57.13,14.65,-1014.65,0.10,-2.15,0.16,14.25,36.45,34.95,27.0
2026/04/13 15:05:15.89,IMU,-34.18,3.42,-1014.65,1.37,-1.18,-0.37,14.40,36.90,34.80,27.1
2026/04/13 15:05:15.99,IMU,-38.57,2.44,-1018.07,-1.59,0.21,0.48,14.10,35.10,34.80,27.0
2026/04/13 15:05:16.11,IMU,-47.85,-3.42,-1048.34,-0.01,1.72,0.55,14.70,36.45,34.20,27.2
2026/04/13 15:05:16.21,IMU,-34.18,-7.81,-1015.14,0.38,-0.35,2.98,14.10,36.15,34.05,27.1
2026/04/13 15:05:16.31,IMU,-43.95,0.98,-1020.51,-0.53,-0.71,-1.16,13.65,37.65,35.55,27.0
2026/04/13 15:05:16.41,IMU,-45.41,-6.84,-1018.55,-0.27,-0.28,-0.14,15.00,36.00,34.65,26.9
2026/04/13 15:05:16.51,IMU,-27.83,-20.02,-1021.00,1.39,-0.20,-0.32,14.85,37.35,35.10,27.1
2026/04/13 15:05:16.61,IMU,-46.39,9.77,-1023.44,0.27,-0.60,1.21,14.70,36.75,34.65,26.8
2026/04/13 15:05:16.71,IMU,-39.55,-2.44,-1018.55,-0.36,-0.26,1.12,13.20,36.45,35.25,26.9
2026/04/13 15:05:16.81,IMU,-40.04,-2.44,-1020.51,0.57,1.26,1.76,14.10,36.90,34.35,26.8
2026/04/13 15:05:16.91,IMU,-33.69,-2.44,-1005.86,-1.49,0.39,-1.60,15.45,37.20,33.90,27.3
2026/04/13 15:05:17.01,IMU,-40.04,-0.49,-1021.00,0.66,0.05,-1.06,14.10,36.15,34.35,27.3
2026/04/13 15:05:17.11,IMU,-32.71,-6.35,-1017.58,1.46,0.44,1.34,12.75,36.00,35.25,27.1
2026/04/13 15:05:17.21,IMU,-42.97,-3.42,-1019.04,-0.58,1.02,0.67,10.35,36.60,36.60,27.1
2026/04/13 15:05:17.32,IMU,-52.73,0.00,-1011.72,1.69,-0.91,2.08,14.70,36.45,35.25,27.3
2026/04/13 15:05:17.42,IMU,-44.43,4.88,-1017.58,-0.62,1.33,0.98,13.65,35.10,34.80,27.1
2026/04/13 15:05:17.52,IMU,-36.62,-8.30,-1010.74,0.69,1.09,-0.78,13.05,37.65,35.85,26.8
2026/04/13 15:05:17.62,IMU,-41.99,2.44,-1023.44,-0.27,-0.73,0.75,14.40,35.40,34.35,27.0
2026/04/13 15:05:17.72,IMU,-38.57,-10.74,-1011.23,-0.05,-0.50,0.44,13.20,35.25,34.65,26.9
2026/04/13 15:05:17.82,IMU,-54.20,-14.65,-1006.35,1.15,-0.05,-0.25,13.35,36.15,34.35,27.3
2026/04/13 15:05:17.92,IMU,-43.95,-0.98,-996.58,-1.37,-2.22,-0.99,13.65,35.85,34.05,27.0
2026/04/13 15:05:18.02,IMU,-44.43,-2.44,-1004.39,-2.20,0.27,1.70,12.75,36.75,33.90,27.0
2026/04/13 15:05:18.12,IMU,-58.59,-2.44,-1012.70,-0.06,0.73,-1.99,14.10,36.90,35.55,27.3
2026/04/13 15:05:18.22,IMU,-45.41,-9.77,-1009.77,0.27,0.56,-0.68,13.65,35.85,34.05,26.9
2026/04/13 15:05:18.32,IMU,-45.41,-5.86,-1021.97,-0.29,1.10,1.92,13.05,36.90,34.05,27.0
2026/04/13 15:05:18.42,IMU,-39.06,-1.46,-1000.49,0.51,-0.94,-0.25,14.40,36.60,34.80,27.2
2026/04/13 15:05:18.52,IMU,-43.46,-6.35,-1021.00,0.53,1.76,-0.24,13.05,36.60,34.05,26.7
2026/04/13 15:05:18.62,IMU,-39.06,5.86,-1009.77,0.53,-0.79,0.58,12.45,36.45,34.20,27.1
2026/04/13 15:05:18.72,IMU,-40.53,-1.95,-1011.23,-0.63,0.85,1.51,13.65,36.15,35.10,27.3
2026/04/13 15:05:18.82,IMU,-41.50,-8.30,-1010.74,-0.15,0.98,-0.79,13.50,37.20,35.25,27.1
2026/04/13 15:05:18.92,IMU,-56.64,-4.39,-1027.34,-0.50,0.68,1.80,14.70,35.55,35.25,27.1
2026/04/13 15:05:19.02,IMU,-50.29,5.86,-1023.44,-0.72,-0.68,0.18,14.85,35.10,34.35,27.3
2026/04/13 15:05:19.12,IMU,-51.27,-2.44,-1010.74,-0.06,-0.29,0.13,14.40,36.15,34.35,27.0
2026/04/13 15:05:19.23,IMU,-46.39,-1.46,-1014.65,-0.34,0.59,2.29,10.20,33.75,39.30,27.1
2026/04/13 15:05:19.33,IMU,-40.53,8.30,-1011.72,0.40,-0.94,3.11,13.65,35.85,34.05,27.2
2026/04/13 15:05:19.43,IMU,-55.18,-8.79,-1010.25,0.66,1.39,0.71,15.00,34.80,34.65,27.0
2026/04/13 15:05:19.53,IMU,-39.06,-3.91,-1013.18,0.06,1.73,-1.93,13.35,36.60,35.55,27.3
2026/04/13 15:05:19.63,IMU,-45.41,-5.86,-1020.51,1.31,-1.42,0.01,12.45,35.55,34.20,27.0
2026/04/13 15:05:19.73,IMU,-51.27,-8.79,-1012.70,-0.70,2.38,-0.72,12.30,36.15,34.35,27.3
2026/04/13 15:05:20.57,IMU,-31.25,-5.37,-1023.44,-0.82,-0.10,-3.33,12.75,35.55,34.95,27.0
2026/04/13 15:05:20.67,IMU,-39.06,4.39,-1015.14,1.16,1.77,-0.52,15.60,36.15,34.35,27.1
2026/04/13 15:05:20.77,IMU,-36.13,-0.98,-1010.74,-0.33,2.61,0.20,13.95,36.75,33.90,27.0
2026/04/13 15:05:20.87,IMU,-45.41,-6.35,-1012.70,-1.30,0.85,0.37,13.95,36.45,33.90,27.3
2026/04/13 15:05:20.97,IMU,-45.41,4.39,-1013.67,0.74,1.08,-0.80,14.40,35.85,33.60,27.0
2026/04/13 15:05:21.07,IMU,-45.90,0.00,-1019.53,0.18,0.35,1.11,12.75,35.55,36.75,27.1
2026/04/13 15:05:21.17,IMU,-48.83,-3.42,-1000.49,-0.71,1.16,1.22,13.20,36.45,34.65,26.9
2026/04/13 15:05:21.27,IMU,-31.25,4.39,-1023.93,0.77,1.18,0.18,14.70,36.75,34.65,27.3
2026/04/13 15:05:21.37,IMU,-46.39,3.91,-1021.48,1.13,-0.69,-3.42,13.20,36.75,33.90,26.8
2026/04/13 15:05:21.47,IMU,-43.46,-1.46,-1017.09,-0.22,1.34,-1.61,13.65,35.85,34.80,27.2
2026/04/13 15:05:21.57,IMU,-56.15,0.49,-1018.55,0.77,0.33,1.11,14.25,35.55,36.45,27.3
2026/04/13 15:05:21.67,IMU,-51.27,-2.44,-1019.04,-0.14,0.74,0.03,13.65,36.15,34.80,27.2
2026/04/13 15:05:21.77,IMU,-44.92,1.46,-1011.23,1.10,1.89,0.66,13.65,36.60,34.80,27.2
2026/04/13 15:05:21.87,IMU,-25.39,9.28,-1008.79,-0.48,0.95,0.51,14.10,36.15,34.80,27.0
2026/04/13 15:05:21.97,IMU,-39.06,-1.46,-1022.95,1.06,0.64,-1.04,13.05,35.40,34.35,27.2
2026/04/13 15:05:22.07,IMU,-40.04,0.00,-1006.35,-0.93,-0.02,1.04,13.95,36.45,35.25,26.9
2026/04/13 15:05:22.17,IMU,-35.16,-4.39,-1018.07,-0.92,-1.32,1.27,14.25,36.75,35.25,26.8
2026/04/13 15:05:22.27,IMU,-32.23,1.46,-1010.74,0.33,2.24,1.71,13.50,36.75,35.70,27.0
2026/04/13 15:05:22.37,IMU,-44.92,8.79,-1017.09,-0.26,0.55,1.37,13.50,36.00,34.20,27.2
2026/04/13 15:05:22.47,IMU,-35.16,4.88,-1007.81,0.49,0.05,1.98,13.50,37.50,35.25,26.8
2026/04/13 15:05:22.57,IMU,-44.43,0.00,-1009.77,-1.15,1.28,-0.40,12.75,34.80,33.45,27.1
2026/04/13 15:05:22.67,IMU,-48.83,2.93,-1017.09,1.92,-0.38,1.15,13.95,35.55,34.95,27.1
2026/04/13 15:05:22.77,IMU,-47.36,3.42,-1014.65,-2.21,1.33,-0.66,13.95,36.75,34.20,27.2
2026/04/13 15:05:22.88,IMU,-46.39,6.35,-1007.81,-0.47,0.15,1.66,14.40,35.85,34.35,27.2
2026/04/13 15:05:22.98,IMU,-51.27,10.25,-1012.70,-0.10,0.79,-0.95,13.65,35.40,34.05,27.3
2026/04/13 15:05:23.08,IMU,-35.16,0.98,-1010.74,-0.65,-0.57,-1.53,13.95,36.00,33.90,27.3
2026/04/13 15:05:23.18,IMU,-43.46,-1.46,-1027.34,-0.38,1.34,2.05,14.10,36.90,34.80,27.1
2026/04/13 15:05:23.28,IMU,-39.06,-0.98,-1010.25,-0.50,0.63,-3.23,14.25,36.75,34.65,27.0
2026/04/13 15:05:23.38,IMU,-44.43,-6.84,-1020.02,2.02,0.40,2.10,15.15,36.90,34.35,27.2
2026/04/13 15:05:23.48,IMU,-47.85,6.84,-1007.32,-0.07,1.82,0.52,13.95,37.20,35.25,27.3
2026/04/13 15:05:23.58,IMU,-39.06,-4.39,-1014.65,-0.11,-0.63,-0.57,13.35,35.10,35.55,27.1
2026/04/13 15:05:23.68,IMU,-43.46,-3.42,-1017.09,1.19,0.31,-1.07,13.65,36.60,35.10,27.0
2026/04/13 15:05:23.78,IMU,-51.76,-4.39,-1005.86,-0.66,1.35,-0.48,13.05,35.40,34.80,27.2
2026/04/13 15:05:23.88,IMU,-41.99,0.49,-1019.04,-0.34,2.01,0.64,14.85,35.85,34.80,27.3
2026/04/13 15:05:23.98,IMU,-26.86,-6.35,-1013.18,0.23,0.36,-1.14,13.05,34.65,34.35,26.9
2026/04/13 15:05:24.08,IMU,-47.85,-11.23,-1011.23,-0.50,1.31,0.10,14.40,37.35,35.10,27.1
2026/04/13 15:05:24.18,IMU,-41.50,-6.35,-1007.81,0.40,-0.34,0.00,14.25,36.00,35.70,27.1
2026/04/13 15:05:24.28,IMU,-49.80,-7.81,-1009.28,-0.80,1.10,-0.47,15.15,35.40,34.05,27.1
2026/04/13 15:05:24.38,IMU,-44.43,-12.21,-1006.84,1.10,1.29,0.32,13.95,36.00,34.95,27.1
2026/04/13 15:05:24.48,IMU,-38.09,-2.93,-1007.81,-0.12,1.82,-0.61,13.35,36.15,34.35,27.2
2026/04/13 15:05:24.58,IMU,-59.57,-2.44,-1021.48,1.05,1.69,-3.67,14.40,35.85,35.10,27.0
2026/04/13 15:05:24.68,IMU,-47.85,1.95,-1017.58,-0.07,2.75,-1.49,14.25,36.00,35.70,27.3
2026/04/13 15:05:24.78,IMU,-44.92,1.46,-1016.11,0.44,2.56,2.26,13.35,36.60,35.85,27.2
2026/04/13 15:05:24.88,IMU,-59.08,0.49,-1007.81,-0.13,0.82,2.24,13.50,37.20,34.95,26.8
2026/04/13 15:05:24.98,IMU,-44.43,-1.46,-1000.49,-0.87,-1.46,-0.19,13.65,36.60,34.80,27.2
2026/04/13 15:05:25.08,IMU,-54.69,-9.28,-1005.37,0.52,0.44,-0.18,13.65,36.60,34.80,27.2
2026/04/13 15:05:25.18,IMU,-44.43,10.74,-1011.23,-1.18,-0.76,-1.63,14.40,35.85,34.35,27.3
2026/04/13 15:05:25.28,IMU,-40.04,-5.37,-1012.21,-0.43,0.14,-1.76,14.70,36.00,34.20,27.3
2026/04/13 15:05:25.38,IMU,-47.36,-16.60,-1018.07,-0.74,-2.44,2.95,12.30,35.85,33.30,27.2
2026/04/13 15:05:25.48,IMU,-35.64,4.39,-1007.81,-0.78,0.56,-1.63,14.40,36.15,34.35,27.3
2026/04/13 15:05:25.58,IMU,-47.36,-3.42,-1009.28,1.29,1.95,2.63,14.70,34.80,34.65,27.3
2026/04/13 15:05:25.68,IMU,-61.04,0.98,-1019.53,0.47,-0.42,0.46,14.25,36.45,33.45,27.0
2026/04/13 15:05:25.78,IMU,-31.74,-9.28,-1027.34,0.24,0.34,-2.10,14.10,37.35,33.60,27.2
2026/04/13 15:05:25.88,IMU,-43.95,-0.49,-1010.74,-0.34,-1.03,0.82,13.95,37.20,34.65,27.1
2026/04/13 15:05:25.98,IMU,-54.69,0.49,-1015.14,0.87,-0.29,1.77,14.25,36.75,35.25,27.1
2026/04/13 15:05:26.09,IMU,-37.60,-1.46,-1010.74,1.82,1.43,-0.08,13.50,36.75,34.65,27.2
2026/04/13 15:05:26.19,IMU,-48.83,-2.93,-1019.04,0.58,0.55,-1.80,12.45,35.55,34.20,27.3
2026/04/13 15:05:26.29,IMU,-57.13,-13.18,-1000.98,0.01,-1.98,0.62,13.95,36.45,34.20,27.3
2026/04/13 15:05:26.39,IMU,-39.06,-12.70,-1000.49,0.18,-0.85,1.49,13.20,36.75,34.65,27.0
2026/04/13 15:05:26.49,IMU,-33.20,3.91,-1003.91,-0.85,0.97,-0.20,13.35,36.60,34.05,27.1
2026/04/13 15:05:26.59,IMU,-42.97,-10.25,-1010.25,-0.07,2.53,0.22,14.10,36.90,34.05,27.0
2026/04/13 15:05:26.69,IMU,-34.67,-8.79,-1018.55,1.81,-0.82,3.01,10.95,36.00,39.30,27.2
2026/04/13 15:05:26.79,IMU,-46.88,-9.28,-1011.72,0.42,1.32,-2.55,14.10,35.40,35.10,27.3
2026/04/13 15:05:26.89,IMU,-35.16,7.32,-1009.77,0.81,1.16,-0.08,15.00,37.20,33.90,27.3
2026/04/13 15:05:26.99,IMU,-47.36,-15.14,-1029.79,1.51,0.91,-0.40,14.25,36.45,33.45,27.3
2026/04/13 15:05:27.09,IMU,-34.67,2.44,-1012.70,-0.24,-1.60,1.52,13.65,37.35,35.55,27.3
2026/04/13 15:05:27.19,IMU,-42.97,-8.79,-1006.84,-0.26,1.73,2.13,13.65,37.65,34.80,27.0
2026/04/13 15:05:27.29,IMU,-50.29,-14.16,-1017.09,0.26,1.07,-0.40,12.75,36.75,34.95,27.2
2026/04/13 15:05:27.39,IMU,-45.90,-5.86,-1014.16,0.71,-0.76,-0.94,13.65,35.40,35.10,27.3
2026/04/13 15:05:27.49,IMU,-32.71,4.88,-1016.60,-0.12,1.30,-0.78,13.05,35.40,34.35,26.9
2026/04/13 15:05:27.59,IMU,-40.04,-10.25,-1022.46,1.15,-1.94,0.11,14.25,36.00,34.65,27.2
2026/04/13 15:05:27.69,IMU,-36.62,-11.23,-999.51,-0.93,0.91,2.52,11.40,34.50,41.10,27.3
2026/04/13 15:05:27.79,IMU,-36.62,-0.98,-1016.11,0.75,0.35,-0.21,12.45,36.45,34.95,27.2
2026/04/13 15:05:27.89,IMU,-42.48,-2.44,-1025.88,0.58,0.20,3.38,14.10,37.35,34.35,27.0
2026/04/13 15:05:27.99,IMU,-46.88,-2.93,-1008.30,1.26,-1.36,-1.02,15.15,35.40,34.05,27.1
2026/04/13 15:05:28.09,IMU,-48.34,-15.63,-1015.14,-1.01,2.25,-1.53,14.85,36.15,33.30,27.2
2026/04/13 15:05:28.19,IMU,-36.13,-7.32,-1017.58,1.47,0.86,0.08,13.05,36.90,34.35,27.3
2026/04/13 15:05:28.29,IMU,-36.62,0.00,-1021.97,1.77,0.38,-1.39,14.40,36.90,34.35,27.3
2026/04/13 15:05:28.39,IMU,-39.06,-4.88,-1017.58,0.49,1.77,0.07,13.65,36.15,34.05,27.1
2026/04/13 15:05:28.49,IMU,-44.92,-7.32,-1023.44,-0.74,1.47,-1.02,12.60,35.40,34.35,27.2
2026/04/13 15:05:28.59,IMU,-34.67,1.46,-1021.97,-1.17,1.45,1.48,14.25,35.55,34.65,27.0
2026/04/13 15:05:28.70,IMU,-47.36,-3.91,-1007.32,0.18,0.02,-0.83,10.35,33.90,38.70,27.3
2026/04/13 15:05:28.80,IMU,-43.95,-14.16,-1031.25,-0.06,1.60,-1.80,14.40,36.60,34.80,27.0
2026/04/13 15:05:28.90,IMU,-44.92,-9.77,-1021.00,1.05,-1.53,0.21,13.05,35.40,34.35,27.3
2026/04/13 15:05:29.01,IMU,-57.62,-8.79,-1023.44,-0.37,0.89,-1.47,14.85,36.60,34.35,27.1
2026/04/13 15:05:29.11,IMU,-44.43,7.81,-1025.88,0.08,-1.31,1.78,14.25,37.20,35.25,27.2
2026/04/13 15:05:29.21,IMU,-37.60,-6.35,-1019.53,-2.53,-0.15,1.99,13.50,35.25,34.95,27.3
2026/04/13 15:05:29.31,IMU,-44.43,6.35,-1006.35,1.62,-2.00,-1.84,13.35,35.40,35.55,27.0
2026/04/13 15:05:29.41,IMU,-33.69,8.79,-1010.25,-0.19,0.87,-0.24,12.75,37.50,34.65,27.1
2026/04/13 15:05:29.51,IMU,-52.25,-5.37,-1018.07,-0.31,0.75,0.27,14.10,35.85,34.80,27.2
2026/04/13 15:05:29.61,IMU,-43.46,0.49,-1023.93,0.27,-0.97,0.17,15.00,36.00,35.25,27.1
2026/04/13 15:05:29.71,IMU,-41.99,4.39,-1021.00,0.40,1.72,-1.12,13.20,36.45,34.95,27.1
2026/04/13 15:05:29.81,IMU,-40.53,-15.63,-1014.16,-0.98,0.23,-0.41,14.40,35.10,34.35,27.1
2026/04/13 15:05:29.91,IMU,-44.43,-5.86,-1029.79,1.08,0.52,1.32,14.10,35.40,34.80,27.2
2026/04/13 15:05:30.01,IMU,-53.22,-4.88,-1004.88,-0.89,0.89,0.22,13.95,36.00,34.20,27.1
2026/04/13 15:05:30.11,IMU,-45.90,-1.46,-1016.11,0.85,0.06,2.37,13.95,35.55,35.70,27.2
2026/04/13 15:05:30.21,IMU,-40.04,-7.81,-1017.09,0.66,-0.40,-0.56,14.25,36.00,33.90,26.9
2026/04/13 15:05:30.31,IMU,-26.37,-16.60,-1009.77,-0.37,2.00,-1.16,13.65,35.40,34.80,27.0
2026/04/13 15:05:30.41,IMU,-43.95,-6.84,-1013.18,0.40,0.26,-1.92,13.65,35.85,34.80,27.2
2026/04/13 15:05:30.51,IMU,-45.41,1.46,-1008.79,1.05,1.04,-1.30,12.75,34.80,34.20,26.9
2026/04/13 15:05:30.61,IMU,-52.73,-15.14,-1022.95,-1.62,-0.86,-0.02,15.90,36.90,34.80,27.4
2026/04/13 15:05:30.71,IMU,-43.95,-20.51,-1024.90,-2.02,2.07,1.13,13.95,37.50,34.20,27.3
2026/04/13 15:05:30.81,IMU,-42.48,5.37,-1020.51,1.08,-0.63,2.27,13.95,36.75,36.00,27.0
2026/04/13 15:05:30.91,IMU,-52.25,-0.98,-1020.02,-0.14,-1.11,0.78,13.95,38.25,33.90,27.2
2026/04/13 15:05:31.01,IMU,-36.13,2.93,-1004.88,-2.18,1.09,0.99,14.25,36.45,34.95,27.1
2026/04/13 15:05:31.11,IMU,-35.16,-8.30,-1018.55,0.36,0.99,-1.52,13.35,35.10,33.60,27.0
2026/04/13 15:05:31.21,IMU,-45.90,-14.65,-1009.28,0.82,0.51,-1.45,12.75,36.45,34.65,27.2
2026/04/13 15:05:31.31,IMU,-35.64,-0.49,-1008.30,1.06,1.59,-0.28,13.95,35.25,33.90,27.2
2026/04/13 15:05:31.41,IMU,-45.90,-7.32,-1017.09,-0.14,0.30,-1.46,14.10,36.90,33.60,27.2
2026/04/13 15:05:31.51,IMU,-47.85,-4.88,-1009.28,-0.33,-0.61,1.37,13.65,36.90,34.35,27.0
2026/04/13 15:05:31.61,IMU,-41.02,-8.30,-1008.79,0.83,1.34,-0.11,13.65,35.85,34.05,27.2
2026/04/13 15:05:31.71,IMU,-38.57,-5.86,-1006.35,1.47,-3.11,1.58,13.65,36.60,34.35,27.1
2026/04/13 15:05:31.81,IMU,-43.46,-0.49,-1005.37,-1.24,-2.21,0.20,13.35,36.90,34.80,27.0
2026/04/13 15:05:31.91,IMU,-43.95,5.86,-1010.74,0.07,0.87,-0.92,13.95,35.25,34.65,27.2
2026/04/13 15:05:32.02,IMU,-28.32,-1.95,-1014.16,-0.26,0.83,1.69,14.70,36.00,35.25,27.0
2026/04/13 15:05:32.12,IMU,-40.53,-9.28,-1017.58,0.42,2.02,-1.91,13.35,36.15,35.10,27.1
2026/04/13 15:05:32.22,IMU,-39.55,-10.74,-1014.16,-0.28,-0.92,0.46,13.35,36.90,35.10,27.2
2026/04/13 15:05:32.32,IMU,-53.22,-7.81,-1018.07,1.37,1.94,-0.53,13.50,36.00,36.45,27.2
2026/04/13 15:05:32.42,IMU,-25.39,3.91,-1010.74,-0.30,0.69,-0.98,14.40,36.60,34.35,26.9
2026/04/13 15:05:32.52,IMU,-42.97,-4.39,-1016.60,-0.90,0.48,-1.10,13.35,36.15,35.10,27.2
2026/04/13 15:05:32.62,IMU,-46.39,-2.93,-1015.63,-0.11,3.32,0.22,14.25,36.45,34.20,27.2
2026/04/13 15:05:32.72,IMU,-44.43,-1.95,-1019.04,-0.05,0.61,0.80,13.35,36.60,34.80,27.0
2026/04/13 15:05:32.82,IMU,-33.20,-1.95,-1011.72,-0.30,-0.83,-1.12,13.50,36.75,34.20,27.0
2026/04/13 15:05:32.92,IMU,-43.46,10.74,-1015.14,1.01,-1.81,-2.09,14.25,36.45,34.20,27.5
2026/04/13 15:05:33.02,IMU,-45.41,9.77,-1017.09,2.14,1.84,1.36,13.50,36.00,35.25,27.2
2026/04/13 15:05:33.12,IMU,-49.32,-16.60,-1017.58,0.35,1.74,0.47,13.65,36.60,34.80,27.1
2026/04/13 15:05:33.22,IMU,-42.97,-3.42,-1007.81,0.69,1.15,-0.79,13.95,36.75,34.65,27.3
2026/04/13 15:05:33.32,IMU,-50.78,0.98,-1012.70,1.47,-0.14,3.12,13.50,36.45,34.65,26.9
2026/04/13 15:05:33.42,IMU,-36.13,-5.37,-1015.14,-0.79,-1.18,0.44,13.20,37.20,34.20,27.3
2026/04/13 15:05:33.52,IMU,-45.41,-3.91,-1028.32,1.25,0.99,0.05,13.95,36.00,33.45,27.2
2026/04/13 15:05:33.62,IMU,-50.29,-4.39,-1009.77,-0.11,1.14,-1.40,14.10,36.90,34.80,27.2
2026/04/13 15:05:33.72,IMU,-36.62,0.98,-1011.72,-1.04,1.95,-3.84,13.65,36.90,33.00,27.1
2026/04/13 15:05:33.82,IMU,-37.11,-8.79,-1023.93,0.54,1.61,-2.16,14.40,37.35,35.10,27.1
2026/04/13 15:05:33.92,IMU,-51.76,-3.91,-1016.60,0.82,1.24,-0.48,15.15,35.40,36.15,27.0
2026/04/13 15:05:34.02,IMU,-44.92,7.81,-1009.28,-0.22,1.08,0.89,14.40,35.40,34.80,27.2
2026/04/13 15:05:34.12,IMU,-43.46,4.88,-1013.18,0.43,1.60,-1.39,13.50,36.45,34.65,27.2
2026/04/13 15:05:34.22,IMU,-44.92,0.00,-1013.67,-0.17,0.36,1.86,13.50,36.45,34.65,27.1
2026/04/13 15:05:34.32,IMU,-45.90,-11.72,-1003.91,0.87,1.37,-0.77,13.05,37.65,34.80,27.2
2026/04/13 15:05:34.42,IMU,-24.41,-9.28,-1012.70,-2.53,1.69,-0.09,13.95,36.45,34.95,27.1
2026/04/13 15:05:34.52,IMU,-40.04,-11.23,-1020.51,-1.75,-0.19,-0.28,13.50,36.00,35.25,27.3
2026/04/13 15:05:34.62,IMU,-32.71,10.74,-1010.25,-0.52,1.39,-0.36,13.35,35.85,34.05,27.1
2026/04/13 15:05:34.72,IMU,-59.08,5.37,-1008.79,1.79,-2.15,2.84,13.50,36.45,34.65,27.0
2026/04/13 15:05:34.82,IMU,-44.43,0.49,-1016.11,0.98,-1.56,2.49,13.65,35.40,35.10,26.9
2026/04/13 15:05:34.92,IMU,-35.64,-1.95,-1014.16,1.73,-0.87,2.40,13.50,36.45,35.70,27.3
2026/04/13 15:05:35.03,IMU,-58.59,-17.09,-1014.65,0.05,1.28,2.76,13.65,35.40,34.05,27.3
2026/04/13 15:05:35.13,IMU,-45.41,0.00,-1012.70,1.38,1.88,0.19,15.00,36.45,34.20,27.2
2026/04/13 15:05:35.23,IMU,-54.69,-0.49,-1016.11,-0.05,-0.82,-0.60,13.95,36.75,34.20,27.2
2026/04/13 15:05:35.33,IMU,-41.02,-9.77,-1004.39,0.37,1.30,-2.08,14.40,36.15,34.80,26.8
2026/04/13 15:05:35.43,IMU,-40.53,0.49,-1016.60,-0.16,-0.37,1.05,14.10,36.90,35.85,27.2
2026/04/13 15:05:35.53,IMU,-44.92,-10.74,-1012.21,-0.24,0.47,-0.11,12.60,35.85,34.35,27.0
2026/04/13 15:05:35.63,IMU,-46.39,9.28,-1016.11,-0.08,-1.22,-1.27,13.95,37.50,36.45,27.2
2026/04/13 15:05:35.73,IMU,-39.06,-12.21,-1030.27,0.11,0.34,-2.80,14.10,36.60,34.80,27.0
2026/04/13 15:05:35.83,IMU,-49.80,-11.72,-1014.65,-0.05,-1.14,-1.20,10.95,33.75,38.55,27.2
2026/04/13 15:05:35.93,IMU,-49.80,-11.23,-1008.30,0.35,-0.82,3.01,11.85,35.40,33.60,27.1
2026/04/13 15:05:36.03,IMU,-45.41,-4.88,-1018.07,-1.04,-0.41,0.85,14.10,36.90,34.35,27.1
2026/04/13 15:05:36.13,IMU,-44.43,5.37,-1013.18,0.47,0.85,2.10,13.65,36.90,35.10,27.0
2026/04/13 15:05:36.23,IMU,-40.04,1.46,-1008.79,0.31,0.37,1.52,13.20,36.75,35.25,27.3
2026/04/13 15:05:36.33,IMU,-42.48,-4.39,-1021.48,1.23,1.47,0.95,13.50,36.75,35.70,27.3
2026/04/13 15:05:36.43,IMU,-38.57,-11.23,-1017.09,0.32,0.37,-1.16,13.50,35.55,34.65,27.1
2026/04/13 15:05:36.53,IMU,-50.78,-2.44,-1021.97,0.35,-0.63,-0.20,13.95,35.55,35.70,27.3
2026/04/13 15:05:36.63,IMU,-28.81,-15.14,-1007.81,1.12,-1.37,2.79,15.00,36.45,34.95,26.9
2026/04/13 15:05:36.73,IMU,-46.39,-3.91,-1014.65,-0.75,0.09,1.38,14.25,36.45,34.65,27.2
2026/04/13 15:05:36.83,IMU,-47.36,-1.95,-1019.53,1.14,-0.69,2.77,14.70,36.75,34.65,27.0
2026/04/13 15:05:36.93,IMU,-51.76,-0.98,-1005.37,0.17,1.14,-1.29,13.50,35.55,32.70,27.1
2026/04/13 15:05:37.03,IMU,-47.36,-10.74,-979.49,0.29,-0.37,-0.64,14.25,37.50,34.95,27.5
2026/04/13 15:05:37.13,IMU,-52.73,-3.91,-1014.16,0.15,1.43,-1.91,14.25,36.45,33.45,27.2
2026/04/13 15:05:37.23,IMU,-41.02,1.46,-1005.37,0.74,0.37,-1.95,14.10,35.10,35.55,27.1
2026/04/13 15:05:37.33,IMU,-38.57,0.00,-1017.58,2.23,-0.18,-0.96,14.10,35.40,34.35,27.3
2026/04/13 15:05:37.43,IMU,-50.29,-1.95,-1013.18,-1.20,0.45,0.13,13.65,35.40,34.80,27.3
2026/04/13 15:05:37.53,IMU,-32.23,0.98,-1012.21,0.56,2.10,0.59,13.05,35.85,34.05,27.0
2026/04/13 15:05:37.63,IMU,-53.71,-6.84,-1015.63,-0.26,1.15,-0.90,14.25,36.00,34.20,27.3
2026/04/13 15:05:37.73,IMU,-46.39,-6.35,-1017.09,-0.17,1.21,1.63,14.10,36.15,35.55,27.1
2026/04/13 15:05:37.84,IMU,-39.06,-0.98,-1017.09,-0.59,0.21,0.26,12.60,36.90,34.35,27.1
2026/04/13 15:05:37.94,IMU,-32.71,-3.42,-1022.46,1.09,1.73,-0.84,14.70,34.80,34.20,27.1
2026/04/13 15:05:38.04,IMU,-54.20,-5.37,-1023.44,-1.77,0.69,-2.42,15.15,36.60,34.80,26.9
2026/04/13 15:05:38.14,IMU,-45.90,-5.86,-1022.95,0.27,-0.11,0.12,13.65,36.60,34.35,27.3
2026/04/13 15:05:38.24,IMU,-49.32,0.98,-1002.44,2.20,-0.63,-0.32,14.70,37.20,34.65,27.1
2026/04/13 15:05:38.34,IMU,-32.71,-0.49,-1004.88,0.18,0.53,-0.68,13.65,37.35,34.80,27.5
2026/04/13 15:05:38.44,IMU,-37.11,4.39,-1007.32,0.69,0.42,-1.08,13.35,36.60,36.90,27.2
2026/04/13 15:05:38.54,IMU,-44.43,-3.42,-1013.18,3.12,1.52,-0.37,12.45,36.00,33.45,27.3
2026/04/13 15:05:38.64,IMU,-50.29,4.88,-1018.55,-0.24,3.07,1.70,13.65,36.60,35.10,27.0
2026/04/13 15:05:38.74,IMU,-46.88,-1.95,-1013.18,0.76,-0.67,-1.02,13.05,36.90,35.55,27.3
2026/04/13 15:05:38.84,IMU,-38.57,4.39,-1004.39,0.89,0.83,-1.43,13.05,36.15,35.85,27.2
2026/04/13 15:05:38.94,IMU,-31.25,2.44,-1019.53,0.85,2.12,2.24,14.40,36.90,35.10,27.0
2026/04/13 15:05:39.04,IMU,-41.50,2.93,-1021.97,-1.00,0.44,4.46,12.60,36.60,35.85,27.2
2026/04/13 15:05:39.14,IMU,-46.39,0.00,-1016.60,0.51,-2.47,-2.67,13.35,36.15,34.80,26.9
2026/04/13 15:05:39.24,IMU,-49.80,-5.86,-1018.07,-1.31,2.28,-0.47,12.75,35.55,33.90,27.1
2026/04/13 15:05:39.34,IMU,-45.41,-17.58,-1022.95,-0.40,-1.13,-1.99,14.85,36.90,34.35,27.0
2026/04/13 15:05:39.44,IMU,-44.43,-9.77,-1015.63,0.71,-0.49,-1.20,14.85,36.60,35.55,27.3
2026/04/13 15:05:39.54,IMU,-48.83,-13.18,-1006.84,-1.34,2.04,2.45,13.35,36.90,34.05,27.3
2026/04/13 15:05:39.64,IMU,-39.06,-6.35,-1012.21,-1.52,2.05,-1.07,14.85,36.90,34.35,27.1
2026/04/13 15:05:39.74,IMU,-43.46,1.46,-1014.65,0.62,0.47,-0.89,15.15,36.90,33.60,27.2
2026/04/13 15:05:39.84,IMU,-41.02,-14.65,-1012.21,1.00,-0.50,0.21,12.75,36.45,33.90,27.2
2026/04/13 15:05:39.94,IMU,-30.27,-2.93,-1016.60,-0.47,-1.48,1.24,14.25,35.55,34.95,27.1
2026/04/13 15:05:40.04,IMU,-41.99,3.42,-1021.97,-0.37,-0.69,-1.86,13.20,35.55,34.20,27.0
2026/04/13 15:05:40.14,IMU,-36.62,-13.67,-1019.04,0.64,1.37,1.44,14.85,37.35,35.85,27.2
2026/04/13 15:05:40.25,IMU,-43.95,-2.44,-1008.79,0.40,0.49,-0.30,14.70,35.55,34.95,27.1
2026/04/13 15:05:40.35,IMU,-44.43,-0.98,-1011.72,0.92,-0.85,0.69,14.40,36.15,34.05,27.3
2026/04/13 15:05:40.45,IMU,-38.57,7.32,-1006.84,-0.60,0.12,-0.94,14.25,37.95,33.90,27.0
2026/04/13 15:05:40.55,IMU,-41.02,-0.49,-1009.77,0.45,0.07,-0.92,14.70,36.45,34.65,27.1
2026/04/13 15:05:40.65,IMU,-49.80,-16.11,-1020.51,-0.40,-0.34,1.82,13.35,36.15,35.55,27.0
2026/04/13 15:05:40.75,IMU,-48.34,-19.04,-1000.00,1.67,-0.76,2.09,13.35,35.40,34.80,27.1
2026/04/13 15:05:40.85,IMU,-39.55,2.93,-1004.39,-0.37,0.02,3.98,12.60,36.90,34.05,27.2
2026/04/13 15:05:40.95,IMU,-25.39,-1.46,-1023.44,1.13,-2.50,4.38,15.15,36.15,33.30,27.4
2026/04/13 15:05:41.05,IMU,-39.06,-5.37,-1002.93,0.49,2.25,-1.16,13.65,35.85,35.10,27.1
2026/04/13 15:05:41.15,IMU,-44.92,5.37,-1014.65,0.30,-0.18,-0.50,13.65,36.15,34.05,27.3
2026/04/13 15:05:41.25,IMU,-32.23,-20.02,-1019.04,0.33,0.32,-2.23,14.10,35.85,34.80,27.0
2026/04/13 15:05:41.35,IMU,-47.36,-18.07,-1001.95,0.76,0.70,-2.44,14.40,36.15,34.35,26.8
2026/04/13 15:05:41.45,IMU,-47.36,-1.95,-1013.67,-0.51,2.08,2.15,13.05,36.60,34.05,27.2
2026/04/13 15:05:41.55,IMU,-49.80,-0.49,-1011.23,-1.56,1.91,1.08,13.95,35.55,34.65,26.8
2026/04/13 15:05:41.65,IMU,-47.36,-5.37,-1022.46,0.40,-0.58,1.21,13.95,36.45,35.70,27.5
2026/04/13 15:05:41.75,IMU,-49.80,9.28,-1005.37,-0.92,-0.21,0.90,13.65,36.60,35.10,26.8
2026/04/13 15:05:41.85,IMU,-41.99,-6.84,-1013.67,0.25,0.39,-0.57,13.65,35.85,34.80,27.1
2026/04/13 15:05:41.95,IMU,-45.90,1.46,-1005.37,-1.65,1.76,1.80,13.65,37.65,35.85,26.9
2026/04/13 15:05:42.05,IMU,-28.32,1.95,-1009.28,0.39,-2.11,-0.44,14.40,35.85,33.30,27.4
2026/04/13 15:05:42.15,IMU,-37.60,8.30,-1026.37,-0.39,-0.24,0.01,14.25,37.20,33.90,27.2
2026/04/13 15:05:42.25,IMU,-41.50,0.00,-1028.32,0.69,-1.11,0.15,13.20,37.20,34.65,27.3
2026/04/13 15:05:42.35,IMU,-41.99,-4.88,-1000.98,-1.60,-0.01,-0.57,14.70,37.20,35.70,27.1
2026/04/13 15:05:42.45,IMU,-20.02,-10.25,-1020.02,1.21,-0.95,-0.18,13.50,35.25,34.65,26.8
2026/04/13 15:05:42.55,IMU,-42.48,-10.74,-1018.55,0.95,0.97,-0.23,15.45,35.55,35.25,27.4
2026/04/13 15:05:42.65,IMU,-33.69,2.44,-1014.16,0.63,1.27,0.10,13.20,36.00,34.20,27.0
2026/04/13 15:05:42.75,IMU,-49.32,4.39,-1010.74,1.73,0.82,0.13,13.50,35.55,36.75,27.3
2026/04/13 15:05:42.85,IMU,-45.41,8.79,-1008.79,-0.38,-1.32,0.02,14.85,36.60,34.35,27.0
2026/04/13 15:05:42.95,IMU,-42.97,7.81,-1011.23,-0.31,0.22,-0.58,13.65,35.40,35.10,27.1
2026/04/13 15:05:43.05,IMU,-42.48,9.28,-1001.46,0.37,0.28,-1.82,13.65,38.10,34.80,27.0
2026/04/13 15:05:43.15,IMU,-47.36,18.07,-1000.00,-0.07,1.80,-0.44,14.70,35.55,35.70,27.2
2026/04/13 15:05:43.26,IMU,-45.41,-11.23,-1008.30,-1.38,-0.02,-0.36,13.95,37.20,34.20,27.2
2026/04/13 15:05:43.36,IMU,-47.85,7.81,-1009.77,-1.31,2.68,2.05,13.50,37.20,34.65,27.0
2026/04/13 15:05:43.46,IMU,-27.34,0.49,-1013.18,-1.02,-0.86,-1.38,13.95,36.00,34.65,27.3
2026/04/13 15:05:43.56,IMU,-48.34,7.32,-1003.42,1.84,1.40,2.18,14.25,36.75,34.20,27.1
2026/04/13 15:05:43.66,IMU,-45.41,-10.25,-1011.72,0.73,0.63,-1.53,13.05,35.85,35.10,27.3
2026/04/13 15:05:43.76,IMU,-34.67,-6.35,-1011.23,-1.80,1.58,0.56,13.95,37.50,33.90,27.2
2026/04/13 15:05:43.86,IMU,-41.50,-5.86,-1007.32,-0.46,0.37,-1.07,15.15,35.85,33.30,27.3
2026/04/13 15:05:43.96,IMU,-35.16,-1.95,-1033.20,0.98,1.28,-0.53,15.00,36.75,34.65,27.0
2026/04/13 15:05:44.06,IMU,-54.69,-3.42,-1025.88,-0.11,0.44,0.83,13.05,36.15,34.80,27.3
2026/04/13 15:05:44.16,IMU,-34.18,-4.39,-1023.44,1.13,1.00,0.63,14.10,35.40,33.60,27.3
2026/04/13 15:05:44.26,IMU,-44.43,5.37,-1012.21,0.15,1.15,2.77,14.85,35.40,35.10,27.0
2026/04/13 15:05:44.36,IMU,-47.85,1.46,-1015.14,1.60,1.71,-1.66,15.15,36.60,35.85,27.1
2026/04/13 15:05:44.46,IMU,-41.02,5.37,-1012.21,-0.14,-0.40,-0.24,13.95,35.25,34.65,27.0
2026/04/13 15:05:44.56,IMU,-42.48,-6.35,-1016.60,-1.29,0.40,0.72,13.65,36.60,34.35,27.2
2026/04/13 15:05:44.66,IMU,-47.85,-13.18,-1020.51,0.52,0.89,0.47,14.10,37.35,34.80,26.9
2026/04/13 15:05:44.76,IMU,-41.02,-0.98,-1006.35,-1.23,-1.26,-0.72,13.95,35.55,35.25,27.2
2026/04/13 15:05:44.86,IMU,-28.32,-1.46,-1018.07,0.37,0.05,-1.11,13.95,35.55,35.25,27.1
2026/04/13 15:05:44.96,IMU,-47.85,-4.39,-1008.79,0.56,0.24,-1.55,11.70,35.25,37.80,27.1
2026/04/13 15:05:45.06,IMU,-42.97,-0.98,-1028.81,-0.73,-0.10,1.86,14.10,35.85,33.00,27.2
2026/04/13 15:05:45.16,IMU,-48.34,-10.25,-1013.18,0.09,1.21,1.24,14.70,35.55,34.95,27.1
2026/04/13 15:05:45.26,IMU,-41.50,2.93,-1016.11,0.88,2.70,-0.47,12.00,35.55,35.25,27.1
2026/04/13 15:05:45.36,IMU,-43.46,-4.88,-1010.25,0.24,1.05,3.53,13.50,36.75,33.90,27.3
2026/04/13 15:05:45.46,IMU,-32.23,-3.91,-1016.11,0.40,0.92,-0.70,15.00,36.75,34.20,27.2
2026/04/13 15:05:45.56,IMU,-38.57,6.35,-1003.91,0.30,1.50,1.13,13.05,35.10,34.80,26.9
2026/04/13 15:05:45.66,IMU,-36.62,-4.88,-1013.67,0.19,-0.34,1.19,13.65,37.65,34.35,27.3
2026/04/13 15:05:45.76,IMU,-46.39,-3.42,-1025.88,0.08,0.60,0.27,13.05,36.60,36.15,27.3
2026/04/13 15:05:45.86,IMU,-36.62,0.98,-1008.30,-1.09,0.96,-0.64,14.40,36.15,34.35,27.3
2026/04/13 15:05:45.96,IMU,-37.60,-3.91,-1013.67,1.29,-0.08,1.27,11.70,34.80,39.30,27.5
2026/04/13 15:05:46.06,IMU,-35.16,0.00,-1021.48,0.01,-0.36,-1.70,15.15,37.35,34.35,27.3
2026/04/13 15:05:46.16,IMU,-44.92,11.72,-1018.07,-0.18,-0.33,1.15,14.70,37.50,34.20,27.2
2026/04/13 15:05:46.26,IMU,-36.13,-11.23,-1010.25,1.89,0.38,0.65,14.25,36.00,34.20,27.1
2026/04/13 15:05:46.37,IMU,-45.90,3.91,-1016.11,-0.29,0.73,-1.60,13.50,36.00,35.70,27.1
2026/04/13 15:05:46.47,IMU,-34.18,3.42,-1002.44,-1.02,1.21,-0.98,14.10,36.15,35.55,27.3
2026/04/13 15:05:46.57,IMU,-29.30,4.39,-1010.25,0.60,-2.62,-0.02,14.10,36.60,34.80,27.3
2026/04/13 15:05:46.67,IMU,-49.32,-14.65,-1014.65,-0.68,-0.31,-1.30,14.25,36.75,34.65,27.2
2026/04/13 15:05:46.77,IMU,-46.88,12.21,-1021.97,-1.21,-0.18,-1.18,13.35,36.15,35.10,27.1
2026/04/13 15:05:46.87,IMU,-40.53,2.44,-1018.55,-0.52,-0.85,2.46,14.10,36.15,34.80,27.1
2026/04/13 15:05:46.97,IMU,-42.97,-5.86,-1022.46,-0.82,-0.82,-0.70,13.65,35.85,33.60,27.1
2026/04/13 15:05:47.07,IMU,-50.29,2.44,-1007.32,0.99,-1.12,0.56,14.70,36.75,34.95,27.0
2026/04/13 15:05:47.17,IMU,-53.71,-8.79,-1006.35,0.53,1.04,-0.96,13.50,37.50,35.70,27.3
2026/04/13 15:05:47.28,IMU,-39.55,0.98,-1003.42,0.44,1.29,-2.08,13.20,36.00,34.95,27.2
2026/04/13 15:05:47.38,IMU,-39.55,0.49,-1012.70,1.43,-0.37,-0.80,13.50,36.00,34.65,27.3
2026/04/13 15:05:47.48,IMU,-47.85,-16.60,-1026.37,0.85,-2.01,1.47,14.70,36.75,35.25,27.0
2026/04/13 15:05:47.58,IMU,-43.46,8.30,-1020.02,1.62,-0.65,0.98,13.35,36.15,34.80,27.1
2026/04/13 15:05:47.68,IMU,-31.25,-10.74,-1009.28,-0.06,1.60,-0.50,14.40,35.40,34.80,27.3
2026/04/13 15:05:47.78,IMU,-49.80,-9.28,-1015.63,-0.02,-0.04,-0.66,13.95,35.25,33.90,27.1
2026/04/13 15:05:47.88,IMU,-46.88,-7.32,-1012.21,1.40,1.27,1.00,13.65,36.90,33.60,27.3
2026/04/13 15:05:47.98,IMU,-43.95,2.44,-1017.09,1.18,0.33,2.35,13.05,35.85,34.05,27.0
2026/04/13 15:05:48.08,IMU,-55.18,0.49,-1013.18,-0.83,2.07,-0.53,14.25,35.55,34.95,27.3
2026/04/13 15:05:48.18,IMU,-37.11,-10.25,-1013.18,-0.02,0.01,0.60,14.10,37.35,35.10,27.3
2026/04/13 15:05:48.28,IMU,-46.39,0.98,-1018.07,-1.35,0.82,1.73,14.40,36.90,35.10,27.1
2026/04/13 15:05:48.38,IMU,-46.88,0.98,-1000.49,-2.63,1.01,0.34,13.20,36.75,35.25,27.3
2026/04/13 15:05:48.48,IMU,-41.99,-7.32,-1015.63,0.14,-0.21,1.65,13.65,35.40,34.80,27.3
2026/04/13 15:05:48.58,IMU,-41.02,-1.95,-1017.58,0.56,-0.18,2.76,13.05,36.90,35.10,27.3
2026/04/13 15:05:48.68,IMU,-30.76,-12.70,-1019.53,-0.42,1.07,0.16,14.40,37.35,35.10,27.2
2026/04/13 15:05:48.78,IMU,-55.66,-13.18,-1019.04,0.34,0.26,-0.22,13.20,36.75,34.20,27.3
2026/04/13 15:05:48.88,IMU,-47.36,-1.95,-1004.39,-1.59,1.14,1.44,13.95,36.00,35.25,27.2
2026/04/13 15:05:48.98,IMU,-40.53,-9.77,-1007.81,-1.73,0.99,0.92,14.40,36.60,34.05,27.5
2026/04/13 15:05:49.08,IMU,-48.34,7.32,-1011.72,0.63,0.21,-2.02,13.95,37.20,34.20,27.2
2026/04/13 15:05:49.18,IMU,-35.64,0.00,-1010.25,0.02,-0.18,-0.85,14.25,36.75,36.00,27.0
2026/04/13 15:05:49.28,IMU,-33.20,-4.39,-1017.09,-0.90,1.20,0.11,14.85,36.90,35.85,26.8
2026/04/13 15:05:49.38,IMU,-37.11,-13.18,-1013.18,-0.93,0.51,0.10,15.00,36.45,34.65,27.4
2026/04/13 15:05:49.48,IMU,-44.43,-16.11,-1017.58,1.53,1.56,-1.10,14.10,36.60,33.60,27.1
2026/04/13 15:05:49.58,IMU,-45.41,-0.98,-1013.18,0.46,-0.02,2.02,14.40,36.60,33.60,27.2
2026/04/13 15:05:49.70,IMU,-34.18,2.93,-1001.46,-0.19,0.86,-2.31,13.50,36.00,34.20,27.2
2026/04/13 15:05:49.80,IMU,-41.99,-1.95,-1009.77,0.60,-1.01,2.20,13.95,35.55,34.65,27.2
2026/04/13 15:05:49.90,IMU,-51.27,0.49,-1014.16,0.15,0.29,-0.86,13.65,36.15,34.80,27.3
2026/04/13 15:05:50.00,IMU,-35.64,-2.44,-1010.74,0.72,0.95,0.69,14.25,35.55,35.25,27.1
2026/04/13 15:05:50.10,IMU,-47.85,-1.95,-1010.25,1.26,0.50,-3.35,13.50,34.80,34.20,27.5
2026/04/13 15:05:50.20,IMU,-48.34,-5.86,-1014.16,0.93,0.28,0.25,12.75,37.95,35.25,27.3
2026/04/13 15:05:50.30,IMU,-42.48,-1.46,-1026.37,-1.92,0.55,-0.92,13.20,36.45,34.20,27.2
2026/04/13 15:05:50.40,IMU,-40.53,-1.46,-1006.84,-0.04,0.26,1.95,12.75,37.20,35.70,27.0
2026/04/13 15:05:50.50,IMU,-49.32,-1.95,-1017.09,0.50,-1.21,-0.46,14.40,36.60,33.60,27.4
2026/04/13 15:05:50.60,IMU,-45.41,-4.88,-1005.86,-0.18,-1.43,-0.48,13.65,34.65,34.05,27.2
2026/04/13 15:05:50.70,IMU,-49.32,4.39,-1014.16,0.32,-0.47,-1.18,13.35,36.60,34.80,27.1
2026/04/13 15:05:50.80,IMU,-29.30,-5.86,-1008.30,0.37,-0.05,-0.70,14.85,37.35,34.80,27.3
2026/04/13 15:05:50.90,IMU,-43.46,7.32,-1018.07,0.61,-1.34,-0.79,13.65,37.65,34.35,27.2
2026/04/13 15:05:51.00,IMU,-43.95,6.35,-1016.60,0.08,0.20,-0.34,13.35,35.40,35.85,27.1
2026/04/13 15:05:51.10,IMU,-46.39,11.23,-1021.48,-1.44,-0.53,-2.05,14.10,36.15,35.10,27.2
2026/04/13 15:05:51.20,IMU,-58.59,-3.91,-1013.18,-0.21,-0.22,1.09,14.40,37.35,34.35,27.3
2026/04/13 15:05:51.30,IMU,-35.64,-1.46,-998.05,-0.62,0.59,1.77,13.95,36.45,34.65,27.0
2026/04/13 15:05:51.40,IMU,-32.23,-3.42,-1018.55,0.20,-1.20,-2.87,15.00,36.00,34.20,27.3
2026/04/13 15:05:51.50,IMU,-32.71,-8.79,-1007.81,1.15,-1.33,2.20,14.25,35.55,34.20,27.4
2026/04/13 15:05:51.60,IMU,-48.34,-2.44,-1017.09,0.00,-0.34,0.36,14.10,36.15,35.55,27.2
2026/04/13 15:05:51.70,IMU,-48.34,-2.44,-1011.72,-0.60,0.63,-1.80,14.70,37.95,34.95,27.3
2026/04/13 15:05:51.80,IMU,-45.41,-9.77,-1013.67,-0.89,-2.13,-0.88,14.25,37.20,33.90,27.3
2026/04/13 15:05:51.90,IMU,-32.23,-5.37,-1012.70,0.03,-1.32,-0.79,13.20,36.45,35.25,27.3
2026/04/13 15:05:52.00,IMU,-45.90,-1.46,-1000.49,-0.63,-0.62,-1.47,12.60,36.60,34.80,27.5
2026/04/13 15:05:52.10,IMU,-37.11,1.95,-1018.07,-0.16,0.18,0.95,12.30,35.85,36.15,27.0
2026/04/13 15:05:52.21,IMU,-41.02,0.49,-1003.42,-0.44,-1.30,3.15,13.20,37.20,33.90,27.3
2026/04/13 15:05:52.31,IMU,-49.80,-3.42,-1000.49,-0.28,0.45,3.15,13.65,36.15,35.55,27.2
2026/04/13 15:05:52.41,IMU,-32.71,-4.88,-1019.53,2.76,-0.30,-2.93,14.10,37.35,34.35,27.0
2026/04/13 15:05:52.51,IMU,-48.83,18.55,-998.05,1.29,0.86,0.85,15.45,35.25,34.95,27.3
2026/04/13 15:05:52.61,IMU,-43.95,-0.98,-1021.48,0.34,1.24,-0.58,14.10,35.40,35.55,27.1
2026/04/13 15:05:52.71,IMU,-39.55,-9.77,-1021.00,-0.18,0.41,-0.12,14.10,35.40,34.95,27.3
2026/04/13 15:05:52.81,IMU,-49.32,-1.46,-1010.74,-0.24,0.69,3.00,13.20,37.20,35.25,27.0
2026/04/13 15:05:52.91,IMU,-41.02,-4.39,-1013.18,-0.15,-1.94,-0.74,13.95,36.75,33.90,27.3
2026/04/13 15:05:53.01,IMU,-53.22,-2.93,-1009.28,-0.44,-0.40,1.34,14.10,35.85,34.05,27.2
2026/04/13 15:05:53.11,IMU,-48.34,-2.44,-1022.46,-0.76,1.34,-1.59,13.95,36.00,35.25,27.1
2026/04/13 15:05:53.21,IMU,-41.02,-7.81,-999.02,-0.72,-0.86,-3.25,13.95,36.75,34.95,27.2
2026/04/13 15:05:53.31,IMU,-52.25,-5.37,-1007.32,0.34,0.96,1.76,14.40,35.10,33.30,27.2
2026/04/13 15:05:53.41,IMU,-31.25,-14.65,-1016.11,0.59,0.56,-0.10,14.10,36.15,35.85,27.3
2026/04/13 15:05:53.51,IMU,-42.48,-1.46,-1014.16,-1.69,-0.08,-0.44,14.85,36.15,34.35,27.2
2026/04/13 15:05:53.61,IMU,-48.34,-6.84,-1011.72,1.96,0.81,-0.93,13.95,36.00,34.65,27.3
2026/04/13 15:05:53.71,IMU,-47.85,-17.58,-1010.74,0.46,1.09,2.76,13.65,36.60,34.05,27.2
2026/04/13 15:05:53.81,IMU,-34.67,2.93,-1016.60,-0.41,-0.77,-1.30,14.10,37.65,35.55,27.1
2026/04/13 15:05:53.91,IMU,-36.13,-5.37,-1019.04,0.15,-1.02,-3.22,14.85,35.85,34.80,27.3
2026/04/13 15:05:54.01,IMU,-46.39,-6.84,-1009.28,-1.95,1.66,-2.41,15.00,35.55,34.95,27.0
2026/04/13 15:05:54.11,IMU,-45.90,-1.46,-1007.81,2.22,0.66,1.59,11.10,36.15,36.90,27.1
2026/04/13 15:05:54.21,IMU,-43.95,-3.42,-1010.74,-1.26,1.76,0.92,13.65,36.60,35.55,27.1
2026/04/13 15:05:54.31,IMU,-48.34,0.49,-1016.60,1.23,1.40,-1.01,13.50,37.50,34.65,27.5
2026/04/13 15:05:54.41,IMU,-45.41,-1.95,-1019.04,0.04,2.07,1.26,13.95,36.00,35.25,27.2
2026/04/13 15:05:54.51,IMU,-49.32,4.88,-1063.96,0.12,2.95,1.09,13.50,36.00,34.20,27.1
2026/04/13 15:05:54.61,IMU,-36.13,-7.32,-1003.91,0.24,-0.98,-0.41,12.75,36.00,34.20,27.3
2026/04/13 15:05:54.71,IMU,-38.09,-0.49,-1017.58,-0.44,-0.92,1.50,13.95,37.50,34.65,27.3
2026/04/13 15:05:54.81,IMU,-43.95,-2.44,-1004.39,-1.43,2.76,1.62,13.65,38.10,34.35,27.0
2026/04/13 15:05:54.91,IMU,-37.60,-1.46,-1016.60,-0.66,0.23,-0.02,13.50,36.45,34.65,27.3
2026/04/13 15:05:55.01,IMU,-51.27,-3.42,-1013.18,-1.04,-0.50,1.19,15.00,36.00,34.95,27.3
2026/04/13 15:05:55.11,IMU,-50.29,-13.18,-1012.70,0.84,1.41,-0.06,14.25,36.00,36.45,27.3
2026/04/13 15:05:55.21,IMU,-41.02,-11.23,-1019.53,-0.63,0.13,0.95,14.25,36.00,33.90,27.3
2026/04/13 15:05:55.32,IMU,-52.73,1.46,-1017.58,0.36,-0.89,2.39,14.70,36.75,34.20,27.1
2026/04/13 15:05:55.42,IMU,-33.69,-2.93,-1014.65,-1.59,-0.41,0.39,14.40,36.60,35.85,27.2
2026/04/13 15:05:55.52,IMU,-52.25,-6.84,-1020.51,-0.20,1.44,-0.27,14.10,37.35,34.80,27.3
2026/04/13 15:05:55.62,IMU,-46.88,-3.42,-1014.16,0.46,-1.18,2.65,13.50,34.50,34.95,27.1
2026/04/13 15:05:55.72,IMU,-36.13,1.46,-1024.90,0.22,0.11,-0.42,13.65,36.15,35.10,27.3
2026/04/13 15:05:55.82,IMU,-49.32,4.39,-1011.23,1.15,2.24,0.60,13.65,36.60,34.80,27.3
2026/04/13 15:05:55.92,IMU,-39.55,-2.93,-1012.21,0.93,1.49,1.28,13.95,36.45,34.95,27.3
2026/04/13 15:05:56.02,IMU,-38.57,-9.77,-1010.25,0.66,1.05,-0.84,14.10,35.40,35.55,27.3
2026/04/13 15:05:56.12,IMU,-48.83,-5.86,-1014.65,-2.15,1.31,-0.41,13.65,33.90,35.85,27.0
2026/04/13 15:05:56.22,IMU,-24.41,-0.98,-1010.74,1.37,1.81,0.11,14.10,36.90,33.30,27.3
2026/04/13 15:05:56.32,IMU,-50.29,4.39,-1019.53,0.68,1.20,1.27,13.95,36.75,35.25,27.3
2026/04/13 15:05:56.42,IMU,-43.46,6.84,-1015.63,-0.02,1.27,1.69,14.25,36.00,34.65,27.6
2026/04/13 15:05:56.52,IMU,-43.95,4.88,-1010.74,1.44,-0.59,1.88,13.65,36.90,35.10,27.3
2026/04/13 15:05:56.62,IMU,-40.04,12.21,-1012.21,-0.42,0.85,-1.51,13.05,36.15,35.10,27.2
2026/04/13 15:05:56.72,IMU,-49.80,-5.37,-1019.04,-0.66,0.60,3.27,13.65,36.15,35.10,27.2
2026/04/13 15:05:56.82,IMU,-31.25,-3.91,-1017.09,1.60,-2.70,2.15,14.10,36.15,34.35,27.2
2026/04/13 15:05:56.92,IMU,-40.53,-4.88,-1013.67,-0.33,-0.42,-0.34,13.35,35.85,34.35,27.3
2026/04/13 15:05:57.02,IMU,-50.78,2.44,-1001.95,1.56,1.10,-0.31,14.10,35.40,33.30,26.9
2026/04/13 15:05:57.12,IMU,-47.85,-4.39,-1013.18,0.63,-0.06,1.74,14.85,36.90,34.05,27.3
2026/04/13 15:05:57.22,IMU,-47.36,-2.93,-1016.11,0.52,1.16,-0.67,15.45,37.50,34.95,27.1
2026/04/13 15:05:57.32,IMU,-49.80,-9.77,-1011.72,0.52,-1.31,0.53,14.40,37.35,34.35,27.5
2026/04/13 15:05:57.42,IMU,-32.23,-4.39,-1015.14,-0.40,-0.21,-0.74,14.10,36.90,34.80,27.3
2026/04/13 15:05:57.52,IMU,-52.25,5.37,-1008.79,1.67,0.92,-0.76,14.25,36.75,34.65,27.3
2026/04/13 15:05:57.62,IMU,-32.71,6.35,-1019.04,-1.50,-0.63,-2.87,13.50,35.55,35.25,27.3
2026/04/13 15:05:57.72,IMU,-44.43,-11.72,-1024.90,1.59,-0.57,-0.02,14.25,36.00,34.95,27.3
2026/04/13 15:05:57.82,IMU,-37.11,-7.32,-1012.70,-0.47,0.62,0.27,13.20,35.25,34.20,27.3
2026/04/13 15:05:57.92,IMU,-35.64,-7.32,-1023.93,1.87,-0.15,-0.47,14.10,36.60,34.05,27.3
2026/04/13 15:05:58.03,IMU,-49.80,-1.95,-1021.00,0.56,1.38,0.89,13.05,35.85,35.10,27.2
2026/04/13 15:05:58.13,IMU,-35.64,5.37,-1016.11,-0.11,-0.01,-0.18,14.25,36.75,34.95,27.2
2026/04/13 15:05:58.23,IMU,-29.30,-10.74,-1001.46,-1.01,1.18,-2.24,12.75,36.75,35.70,27.2
2026/04/13 15:05:58.33,IMU,-48.83,-3.42,-1014.65,1.71,-1.43,3.02,13.95,36.00,34.65,27.5
2026/04/13 15:05:58.43,IMU,-58.59,-1.46,-1016.60,0.66,1.05,1.04,14.40,35.40,35.85,27.3
2026/04/13 15:05:58.53,IMU,-50.78,-0.98,-1016.60,-0.81,-1.17,-2.36,13.35,37.35,33.60,27.1
2026/04/13 15:05:58.63,IMU,-48.83,4.39,-1021.00,-1.44,0.30,0.98,13.20,34.50,34.95,27.2
2026/04/13 15:05:58.73,IMU,-47.85,-5.37,-1009.28,0.14,0.08,-1.31,14.25,36.45,35.25,27.1
2026/04/13 15:05:58.83,IMU,-48.34,-1.95,-1022.46,-1.55,0.98,0.21,13.20,37.50,34.95,27.3
2026/04/13 15:05:58.93,IMU,-33.69,-5.37,-1014.65,-0.20,2.56,-1.04,13.50,36.45,33.90,27.3
2026/04/13 15:05:59.03,IMU,-54.69,-3.91,-1017.58,0.27,1.38,2.02,14.25,36.75,34.20,27.5
2026/04/13 15:05:59.13,IMU,-43.46,-6.84,-1023.44,0.45,1.08,-2.56,14.85,36.60,35.55,27.5
2026/04/13 15:05:59.23,IMU,-42.48,5.86,-1011.23,-0.77,-0.01,-1.18,14.40,38.10,33.30,27.5
2026/04/13 15:05:59.33,IMU,-40.04,11.23,-1017.58,0.63,-0.74,-0.41,13.95,36.45,34.65,27.3
2026/04/13 15:05:59.43,IMU,-38.09,4.88,-1005.86,0.20,0.96,4.60,13.95,36.45,34.95,27.4
2026/04/13 15:05:59.53,IMU,-32.71,-4.39,-1018.55,0.08,0.49,-0.51,15.00,35.25,33.90,27.5
2026/04/13 15:05:59.63,IMU,-41.02,0.98,-1001.95,-1.20,2.71,-1.34,14.10,35.85,34.05,27.3
2026/04/13 15:05:59.73,IMU,-33.20,-10.74,-1019.04,-0.48,1.26,-0.69,14.25,36.45,34.95,27.1
2026/04/13 15:05:59.83,IMU,-41.50,-9.28,-1019.04,1.84,-0.78,0.58,13.20,36.75,35.25,27.1
2026/04/13 15:05:59.93,IMU,-46.39,-14.65,-1019.04,-1.91,2.34,-0.87,13.50,37.20,35.25,27.5
2026/04/13 15:06:00.03,IMU,-46.39,-3.91,-1025.88,1.06,0.49,1.48,13.35,35.85,35.10,27.2
2026/04/13 15:06:00.13,IMU,-46.88,-3.91,-1025.39,-0.56,2.28,0.80,14.70,36.45,34.95,27.3
2026/04/13 15:06:00.23,IMU,-43.95,-6.84,-1016.11,-0.15,0.44,-0.63,14.70,36.00,33.90,27.5
2026/04/13 15:06:00.36,IMU,-46.39,-5.37,-1017.58,1.15,0.69,-0.91,14.70,36.75,33.90,27.3
2026/04/13 15:06:00.46,IMU,-42.97,-5.86,-1007.81,-0.05,-1.04,5.08,13.95,37.20,34.95,27.2
2026/04/13 15:06:00.56,IMU,-34.67,-6.35,-1022.95,-0.77,3.53,0.12,13.05,35.40,33.60,27.2
2026/04/13 15:06:00.66,IMU,-43.95,0.49,-1005.86,1.24,0.27,-0.11,15.75,35.55,33.45,27.3
2026/04/13 15:06:00.76,IMU,-48.83,-8.30,-1003.91,1.40,0.19,-0.39,15.00,36.75,35.70,27.3
2026/04/13 15:06:00.86,IMU,-45.90,-9.77,-1006.35,0.64,-0.49,1.59,13.50,36.75,34.65,27.4
2026/04/13 15:06:00.96,IMU,-47.85,10.74,-1023.44,1.14,-1.32,-1.26,14.40,35.85,34.80,27.4
2026/04/13 15:06:01.06,IMU,-58.11,5.86,-1009.77,2.26,1.50,2.71,14.10,37.65,34.05,27.1
2026/04/13 15:06:01.16,IMU,-51.27,5.37,-1021.00,0.91,1.95,2.46,13.35,35.40,34.35,27.1
2026/04/13 15:06:01.26,IMU,-39.06,-8.79,-1024.90,2.72,-0.62,-1.71,13.35,36.60,34.05,27.5
2026/04/13 15:06:01.36,IMU,-48.83,0.00,-1021.00,-0.15,1.26,1.12,13.20,36.45,34.20,27.1
2026/04/13 15:06:01.46,IMU,-43.46,-4.39,-1014.65,0.69,1.65,1.08,13.95,35.25,35.25,27.3
2026/04/13 15:06:01.56,IMU,-37.11,-9.77,-1021.00,1.21,0.46,1.40,14.40,35.40,34.80,27.1
2026/04/13 15:06:01.66,IMU,-41.50,-7.81,-1021.97,-0.36,2.26,1.06,13.50,36.00,35.25,27.5
2026/04/13 15:06:01.76,IMU,-33.69,3.42,-1013.67,0.00,1.04,-0.37,13.65,36.60,34.35,27.4
2026/04/13 15:06:01.86,IMU,-41.02,-9.28,-1011.23,-0.82,2.58,0.60,14.25,36.75,34.20,27.3
2026/04/13 15:06:01.96,IMU,-45.41,1.46,-1013.18,0.90,0.03,0.12,13.05,35.40,35.10,27.2
2026/04/13 15:06:02.06,IMU,-50.78,-0.49,-1023.93,0.27,2.47,2.08,13.50,36.45,34.20,27.2
2026/04/13 15:06:02.16,IMU,-55.18,-5.86,-1012.21,1.91,1.57,1.86,14.40,35.40,34.35,27.5
2026/04/13 15:06:02.26,IMU,-47.85,1.46,-1015.63,1.22,-1.56,1.60,14.25,35.25,35.70,27.3
2026/04/13 15:06:02.36,IMU,-51.27,2.44,-1008.79,1.70,-0.62,-0.89,13.35,36.90,34.35,27.2
2026/04/13 15:06:02.46,IMU,-51.76,-6.84,-1015.14,0.88,-1.70,0.68,14.25,36.45,33.90,27.2
2026/04/13 15:06:02.56,IMU,-49.32,1.95,-1010.25,0.11,2.98,-0.65,13.50,36.75,34.65,27.1
2026/04/13 15:06:02.66,IMU,-34.67,-13.18,-998.54,-0.44,1.72,0.81,14.10,36.60,35.55,27.1
2026/04/13 15:06:02.76,IMU,-45.41,2.93,-1013.18,0.27,0.15,-2.18,13.95,36.75,34.65,27.3
2026/04/13 15:06:02.86,IMU,-48.34,0.98,-1009.77,-0.41,1.47,-2.50,13.35,36.90,34.05,27.3
2026/04/13 15:06:02.97,IMU,-40.53,-5.86,-1022.95,0.73,2.54,-2.29,14.10,36.90,33.60,27.4
2026/04/13 15:06:03.07,IMU,-49.80,5.86,-1014.16,-0.45,-0.27,-0.15,14.10,35.85,34.35,27.3
2026/04/13 15:06:03.17,IMU,-52.25,-2.93,-1025.39,0.68,0.63,-0.50,13.35,37.65,35.55,27.5
2026/04/13 15:06:03.27,IMU,-42.97,15.14,-1021.48,-0.68,0.92,-1.06,14.85,36.15,34.80,27.3
2026/04/13 15:06:03.37,IMU,-33.20,-4.88,-1021.00,0.45,-0.75,1.95,14.70,36.00,34.95,27.5
2026/04/13 15:06:03.47,IMU,-28.32,-8.30,-1016.60,1.50,1.49,1.60,13.95,37.20,33.90,27.5
2026/04/13 15:06:03.57,IMU,-57.13,-4.88,-997.56,1.13,0.13,0.37,14.10,37.35,34.80,27.1
2026/04/13 15:06:03.67,IMU,-34.18,0.00,-1011.23,-0.21,0.06,1.69,14.25,35.55,36.45,27.6
2026/04/13 15:06:03.77,IMU,-39.06,-7.81,-1004.88,-2.56,1.93,1.05,14.40,36.15,34.05,27.1
2026/04/13 15:06:03.87,IMU,-36.13,-0.49,-1023.44,-0.47,1.52,0.10,13.65,35.85,34.35,27.3
2026/04/13 15:06:03.97,IMU,-35.16,9.77,-1016.11,-0.32,0.75,0.42,15.15,37.35,34.35,27.3
2026/04/13 15:06:04.07,IMU,-49.80,8.79,-1016.60,2.95,1.23,1.26,13.95,35.55,33.90,27.3
2026/04/13 15:06:04.17,IMU,-52.25,-6.35,-1029.30,0.43,0.79,-0.10,13.95,35.25,34.65,27.3
2026/04/13 15:06:04.27,IMU,-32.71,2.93,-1016.11,0.21,-0.38,-1.40,13.65,36.60,35.85,27.5
2026/04/13 15:06:04.37,IMU,-50.29,-4.88,-1017.09,-0.51,-0.15,-0.10,13.20,36.00,33.90,27.2
2026/04/13 15:06:04.47,IMU,-42.48,-4.88,-1013.18,0.33,0.85,1.07,13.95,37.20,33.90,27.3
2026/04/13 15:06:04.57,IMU,-32.23,-2.44,-1003.91,1.89,1.53,0.48,15.45,37.50,35.70,27.5
2026/04/13 15:06:04.67,IMU,-41.99,-3.42,-1012.70,0.78,1.08,1.27,12.60,35.85,34.05,27.1
2026/04/13 15:06:04.77,IMU,-43.95,0.00,-1007.81,0.40,-0.18,0.11,13.65,37.65,35.55,27.3
2026/04/13 15:06:04.87,IMU,-45.90,-2.93,-1012.70,-0.83,0.03,0.26,12.30,35.10,34.80,27.1
2026/04/13 15:06:04.97,IMU,-45.41,-7.32,-1012.70,-1.03,-0.14,-0.73,14.85,35.85,34.05,27.5
2026/04/13 15:06:05.07,IMU,-45.41,-11.72,-1021.48,-1.70,-1.82,0.36,14.25,36.45,34.65,27.3
2026/04/13 15:06:05.17,IMU,-41.02,-4.39,-1011.72,0.73,2.29,-1.69,14.40,35.40,35.10,27.3
2026/04/13 15:06:05.27,IMU,-49.32,-2.44,-1015.14,2.56,0.46,-1.40,14.10,35.85,34.35,27.3
2026/04/13 15:06:05.37,IMU,-47.85,-2.93,-1004.39,-0.16,1.35,0.79,13.65,35.85,35.10,27.5
2026/04/13 15:06:05.47,IMU,-38.57,-11.23,-1017.58,1.24,0.04,0.78,13.65,36.60,35.10,27.5
2026/04/13 15:06:05.57,IMU,-43.46,1.46,-1007.32,1.00,-0.92,-1.09,13.65,36.15,34.05,27.3
2026/04/13 15:06:05.67,IMU,-43.95,0.49,-1027.83,0.69,2.36,0.23,13.95,36.00,33.90,27.5
2026/04/13 15:06:05.77,IMU,-44.92,0.00,-1008.79,-0.31,0.90,0.51,14.70,37.50,34.20,27.3
2026/04/13 15:06:05.87,IMU,-43.95,2.93,-1021.48,1.20,-1.51,0.40,12.75,36.75,34.20,27.5
2026/04/13 15:06:05.97,IMU,-42.97,-11.23,-1007.81,-2.66,-0.02,1.96,14.40,35.85,35.55,27.5
2026/04/13 15:06:06.07,IMU,-49.32,0.98,-1012.70,-0.27,2.73,0.08,14.25,36.00,35.25,27.4
2026/04/13 15:06:06.18,IMU,-53.71,0.00,-1014.65,1.49,3.85,0.73,13.50,37.20,34.65,27.3
2026/04/13 15:06:06.28,IMU,-43.46,-4.88,-1014.65,0.47,0.32,-0.73,11.55,33.60,39.45,27.5
2026/04/13 15:06:06.38,IMU,-45.41,-13.18,-1019.53,-0.71,1.19,1.54,13.50,36.75,33.90,27.1
2026/04/13 15:06:06.48,IMU,-40.04,-6.84,-1014.16,-1.02,0.57,1.49,15.60,35.85,34.80,27.3
2026/04/13 15:06:06.58,IMU,-37.11,-1.46,-1019.04,-0.91,-0.33,0.27,14.10,35.85,35.10,27.2
2026/04/13 15:06:06.68,IMU,-37.60,-4.88,-1017.09,-0.50,2.05,2.24,13.50,36.45,34.65,27.3
2026/04/13 15:06:06.78,IMU,-48.34,-4.88,-1011.23,-0.13,-0.10,0.13,13.95,35.25,34.20,27.4
2026/04/13 15:06:06.88,IMU,-45.41,-0.98,-1007.81,0.52,0.79,0.55,14.85,36.15,34.05,27.3
2026/04/13 15:06:06.98,IMU,-28.32,-8.30,-1008.79,-2.50,-1.44,-1.63,14.25,36.00,35.25,27.5
2026/04/13 15:06:07.08,IMU,-40.53,-5.86,-1011.72,-1.58,0.20,-2.00,13.65,36.15,34.80,27.3
2026/04/13 15:06:07.18,IMU,-38.09,-2.93,-1013.18,1.31,0.86,0.52,13.65,35.40,35.10,27.3
2026/04/13 15:06:07.28,IMU,-44.92,0.98,-999.02,1.56,0.89,-0.89,10.95,33.00,40.65,27.5
2026/04/13 15:06:07.38,IMU,-40.04,-5.86,-1030.27,-0.03,-0.85,0.09,14.25,36.75,33.90,27.3
2026/04/13 15:06:07.48,IMU,-36.62,-13.18,-1012.70,2.26,1.90,-0.50,15.00,36.00,34.95,27.3
2026/04/13 15:06:07.58,IMU,-46.39,2.44,-1007.81,-0.69,1.08,0.60,14.40,36.60,35.85,27.3
2026/04/13 15:06:07.68,IMU,-43.95,-7.32,-1022.95,2.20,1.82,-0.78,13.95,36.00,35.70,27.1
2026/04/13 15:06:07.78,IMU,-44.43,-4.39,-1008.79,-0.05,0.58,1.05,14.25,35.55,34.20,27.3
2026/04/13 15:06:07.88,IMU,-50.29,-3.91,-1016.60,-0.85,0.91,-0.37,14.40,35.10,35.55,27.4
2026/04/13 15:06:07.98,IMU,-43.46,1.95,-1026.86,-0.11,0.17,1.62,13.20,37.50,33.90,27.4
2026/04/13 15:06:08.08,IMU,-49.32,4.39,-1011.23,0.12,-2.01,-1.78,13.35,35.85,34.35,27.5
2026/04/13 15:06:08.18,IMU,-35.16,5.37,-1013.18,1.20,2.05,-1.60,14.25,36.75,35.25,27.3
2026/04/13 15:06:08.28,IMU,-54.20,-15.63,-1007.32,1.04,-0.73,-3.65,13.65,37.65,35.10,27.2
2026/04/13 15:06:08.38,IMU,-35.16,-3.91,-1009.28,-0.60,0.28,-0.98,14.40,36.15,35.55,27.4
2026/04/13 15:06:08.48,IMU,-47.36,-3.91,-1015.63,-0.13,-1.46,-2.05,14.10,35.85,34.35,27.5
2026/04/13 15:06:08.58,IMU,-45.90,-6.84,-1018.07,0.18,-1.47,-2.45,13.65,36.60,34.80,27.2
2026/04/13 15:06:08.68,IMU,-25.39,-9.28,-1020.51,0.73,0.11,-0.68,13.20,36.45,33.15,27.5
2026/04/13 15:06:08.78,IMU,-49.32,-6.35,-1015.63,-0.75,0.37,1.34,13.20,35.55,34.95,27.3
2026/04/13 15:06:08.88,IMU,-48.34,-11.23,-1023.44,-0.44,-0.24,1.59,13.05,36.90,34.80,27.5
2026/04/13 15:06:08.98,IMU,-49.80,-5.86,-1025.88,0.22,1.85,3.79,13.20,35.55,35.25,27.2
2026/04/13 15:06:09.09,IMU,-46.88,-5.37,-1009.28,0.69,0.24,0.13,13.35,36.15,33.60,27.3
2026/04/13 15:06:09.19,IMU,-44.92,0.00,-1013.67,-0.15,-2.00,-1.02,13.50,34.80,34.20,27.3
2026/04/13 15:06:09.29,IMU,-42.97,-4.88,-1009.28,1.11,-1.41,-1.13,15.00,36.45,34.95,27.5
2026/04/13 15:06:09.39,IMU,-38.57,-3.91,-1025.39,-0.75,0.02,-0.10,14.10,36.90,34.80,27.5
2026/04/13 15:06:09.49,IMU,-41.02,4.39,-1019.04,0.67,1.37,0.05,14.25,37.50,35.25,27.3
2026/04/13 15:06:09.59,IMU,-42.48,0.00,-1011.23,0.14,0.05,0.81,13.65,36.15,35.55,27.4
2026/04/13 15:06:09.69,IMU,-42.97,-11.23,-1003.91,0.33,-0.29,0.53,14.25,35.25,35.25,26.9
2026/04/13 15:06:09.79,IMU,-46.88,6.84,-1005.86,-0.60,-0.95,0.15,15.15,36.15,33.60,27.5
2026/04/13 15:06:09.89,IMU,-33.69,-1.46,-1007.81,0.27,0.10,0.48,14.25,35.25,34.65,27.5
2026/04/13 15:06:09.99,IMU,-52.73,-13.67,-1014.16,-0.96,0.81,-0.46,13.35,36.60,35.55,27.5
2026/04/13 15:06:10.09,IMU,-41.02,1.46,-1019.04,1.74,1.24,3.08,13.95,35.25,33.90,27.3
2026/04/13 15:06:10.19,IMU,-45.41,-6.84,-1012.70,-1.44,0.75,-0.09,14.70,36.45,34.95,27.4
2026/04/13 15:06:10.29,IMU,-40.04,-0.49,-1000.98,0.15,3.80,-1.23,14.85,36.60,35.10,27.3
2026/04/13 15:06:10.39,IMU,-41.02,-4.39,-1022.46,1.02,1.53,-0.59,14.10,36.15,34.80,27.3
2026/04/13 15:06:10.49,IMU,-43.46,-7.32,-1009.28,1.07,1.71,1.21,13.50,35.25,35.70,26.9
2026/04/13 15:06:10.59,IMU,-48.34,-11.72,-1010.74,0.81,-0.75,-3.08,13.65,35.85,34.80,27.6
2026/04/13 15:06:10.69,IMU,-43.95,-6.84,-1007.32,1.30,-0.41,2.18,14.40,35.10,34.05,27.5
2026/04/13 15:06:10.79,IMU,-41.02,-1.95,-1007.81,1.31,0.81,-1.15,14.10,36.15,34.80,27.3
2026/04/13 15:06:10.89,IMU,-41.02,5.86,-1007.81,-1.13,-0.65,-0.10,13.95,36.75,34.20,27.4
2026/04/13 15:06:10.99,IMU,-55.18,-6.84,-1011.72,-0.39,0.71,1.47,15.75,35.25,34.20,27.0
2026/04/13 15:06:11.09,IMU,-43.95,8.79,-1016.60,-0.67,-1.80,2.44,13.50,36.75,34.20,27.1
2026/04/13 15:06:11.19,IMU,-44.43,-1.46,-1016.60,0.44,1.26,-0.62,14.10,35.85,34.80,27.3
2026/04/13 15:06:11.29,IMU,-40.53,-2.93,-1014.65,0.96,0.41,-0.45,14.70,37.20,34.95,27.5
2026/04/13 15:06:11.39,IMU,-42.97,-6.35,-1014.16,-1.00,2.42,-0.15,14.85,36.15,34.80,27.4
2026/04/13 15:06:11.49,IMU,-47.36,-6.35,-1017.58,-1.05,-2.21,-0.95,14.70,36.75,35.25,27.3
2026/04/13 15:06:11.59,IMU,-41.50,4.39,-989.26,1.53,-0.74,0.53,13.35,35.40,34.80,27.2
2026/04/13 15:06:11.69,IMU,-34.18,-6.84,-1013.67,-0.08,2.82,-1.10,13.65,35.40,34.80,27.3
2026/04/13 15:06:11.79,IMU,-41.50,4.88,-1002.93,0.30,-1.82,-0.33,13.65,36.15,33.60,27.1
2026/04/13 15:06:11.90,IMU,-48.34,-4.88,-1017.58,0.92,0.81,0.50,14.10,37.35,35.10,27.5
2026/04/13 15:06:12.00,IMU,-53.71,0.49,-1039.06,3.06,-0.57,-2.27,15.15,36.15,35.85,27.3
2026/04/13 15:06:12.10,IMU,-28.81,1.46,-1024.90,0.76,1.11,-0.62,14.10,36.15,34.35,27.6
2026/04/13 15:06:12.20,IMU,-43.95,5.86,-1002.93,1.11,-0.50,-3.17,13.95,37.20,33.45,27.3
2026/04/13 15:06:12.30,IMU,-47.85,-4.39,-1014.65,-0.53,-0.45,0.50,14.25,36.75,34.95,27.3
2026/04/13 15:06:12.40,IMU,-32.23,13.67,-1016.11,0.16,1.39,-1.05,13.65,36.60,33.60,27.4
2026/04/13 15:06:12.50,IMU,-43.46,5.37,-1009.77,0.34,0.05,0.62,15.15,36.60,35.10,27.5
2026/04/13 15:06:12.60,IMU,-38.57,1.95,-1015.14,0.37,-0.06,-1.55,13.50,36.00,34.95,27.3
2026/04/13 15:06:12.70,IMU,-43.46,1.95,-1015.63,1.05,0.98,1.36,13.20,35.55,35.25,27.3
2026/04/13 15:06:12.80,IMU,-50.78,8.79,-1017.58,0.18,0.73,0.39,13.95,36.75,34.65,27.5
2026/04/13 15:06:12.90,IMU,-42.97,-11.23,-1004.39,0.35,-0.61,-1.46,14.85,35.85,35.55,27.2
2026/04/13 15:06:13.00,IMU,-39.06,5.37,-1021.00,2.63,1.36,1.92,13.05,35.85,35.10,27.6
2026/04/13 15:06:13.10,IMU,-43.46,0.49,-1025.39,-1.93,-0.85,-0.76,13.05,35.40,34.05,27.6
2026/04/13 15:06:13.20,IMU,-36.13,-15.63,-1014.65,0.53,0.59,1.50,13.50,36.00,34.20,27.5
2026/04/13 15:06:13.30,IMU,-44.43,-2.93,-1012.70,0.48,-1.05,-2.25,13.95,36.00,34.95,27.3
2026/04/13 15:06:13.40,IMU,-38.09,-1.95,-1012.70,1.29,-1.23,2.53,14.25,35.25,34.65,27.6
2026/04/13 15:06:13.50,IMU,-42.48,-5.86,-1005.86,-1.68,1.10,-2.17,13.65,35.85,35.85,27.3
2026/04/13 15:06:13.60,IMU,-42.97,3.91,-1008.30,0.21,-0.02,0.53,14.10,36.60,35.10,27.6
2026/04/13 15:06:13.70,IMU,-41.99,-19.53,-1016.11,0.34,-0.05,1.37,14.10,35.40,34.35,27.3
2026/04/13 15:06:13.80,IMU,-42.97,6.84,-1005.37,-0.97,-0.63,3.33,14.25,37.20,34.95,27.2
2026/04/13 15:06:13.90,IMU,-48.83,-0.98,-1011.23,-0.47,-0.15,-1.11,15.45,36.45,33.15,27.5
2026/04/13 15:06:14.00,IMU,-52.25,-3.42,-1013.18,1.08,-1.37,-1.30,14.70,36.45,34.95,27.2
2026/04/13 15:06:14.10,IMU,-43.95,1.46,-1009.77,0.34,0.37,0.64,12.45,36.00,35.25,27.5
2026/04/13 15:06:14.20,IMU,-45.90,-3.91,-1014.16,-1.01,0.83,-2.28,14.85,35.85,35.85,27.3
2026/04/13 15:06:14.30,IMU,-44.43,0.98,-1011.23,0.95,1.75,2.43,13.95,36.75,35.70,27.4
2026/04/13 15:06:14.40,IMU,-34.67,3.91,-1018.55,0.34,2.02,0.83,11.55,37.35,37.35,27.3
2026/04/13 15:06:14.50,IMU,-44.92,20.51,-1015.63,-0.08,-0.85,-0.96,13.20,37.20,34.65,27.2
2026/04/13 15:06:14.60,IMU,-36.62,-10.25,-1008.30,-0.50,0.31,1.86,14.10,34.65,34.05,27.2
2026/04/13 15:06:14.70,IMU,-45.41,1.46,-1018.55,-0.04,-0.06,-2.96,14.40,35.85,34.35,27.3
2026/04/13 15:06:14.80,IMU,-53.22,-1.46,-1015.14,1.02,-1.50,-1.37,15.15,36.90,35.85,27.3
2026/04/13 15:06:14.90,IMU,-50.78,3.91,-1016.60,2.45,-0.89,-2.40,14.10,37.35,34.80,27.3
2026/04/13 15:06:15.01,IMU,-36.62,-0.98,-1022.95,-2.17,2.32,0.73,15.15,36.60,35.55,27.3
2026/04/13 15:06:15.11,IMU,-40.53,-10.74,-1017.09,1.30,-0.24,1.77,13.35,36.60,34.80,27.3
2026/04/13 15:06:15.21,IMU,-42.48,-6.35,-1017.09,0.22,2.15,-2.05,14.10,35.85,36.15,27.3
2026/04/13 15:06:15.31,IMU,-46.88,-2.93,-1018.55,0.72,-0.49,0.50,15.45,36.45,34.65,27.1
2026/04/13 15:06:15.41,IMU,-38.57,-14.16,-1014.65,-1.44,-0.39,-0.50,10.05,35.85,39.15,27.3
2026/04/13 15:06:15.51,IMU,-36.13,3.42,-1008.30,1.08,-1.27,0.51,14.10,36.90,34.35,27.4
2026/04/13 15:06:15.61,IMU,-39.55,-9.28,-1017.09,0.72,-0.28,-0.19,13.65,36.60,35.10,27.5
2026/04/13 15:06:15.71,IMU,-36.62,2.93,-1005.37,-0.87,-0.31,1.74,14.85,37.35,34.35,27.5
2026/04/13 15:06:15.81,IMU,-50.29,-12.70,-1016.11,0.47,1.31,0.98,14.25,37.20,33.15,27.3
2026/04/13 15:06:15.91,IMU,-44.92,-5.37,-1027.83,-1.49,-1.31,-1.71,14.70,35.55,34.95,27.3
2026/04/13 15:06:16.01,IMU,-50.29,-19.53,-1004.88,-0.98,0.27,-0.70,14.40,36.15,35.55,27.5
2026/04/13 15:06:16.11,IMU,-41.02,-0.98,-1009.28,-0.80,0.24,-0.56,12.00,35.55,36.45,27.5
2026/04/13 15:06:16.21,IMU,-45.41,-1.46,-1024.90,-1.40,-0.39,1.27,14.25,36.45,33.45,27.3
