Timestamp,Sensor,AccX,AccY,AccZ,GyrX,GyrY,GyrZ,MagX,MagY,MagZ,Temp
2026/04/13 15:03:58.00,IMU,-41.99,4.88,-1012.70,0.34,2.15,0.18,13.95,35.25,33.90,26.6
2026/04/13 15:03:58.10,IMU,-33.20,-10.25,-1021.97,0.89,-1.24,0.44,14.25,36.45,33.45,26.4
2026/04/13 15:03:58.20,IMU,-38.09,-7.81,-1021.48,0.18,2.01,0.71,13.95,35.55,34.20,26.5
2026/04/13 15:03:58.30,IMU,-51.76,-10.25,-1008.79,-0.04,0.48,0.35,12.75,35.55,34.20,26.7
2026/04/13 15:03:58.40,IMU,-23.44,-0.98,-1015.63,-1.80,-0.36,2.24,12.75,36.45,35.70,26.5
2026/04/13 15:03:58.50,IMU,-42.48,-2.93,-1013.18,0.03,2.18,2.25,13.65,35.40,34.80,26.7
2026/04/13 15:03:58.60,IMU,-41.99,-5.37,-1019.04,-0.09,0.66,-0.24,14.40,36.60,34.35,26.6
2026/04/13 15:03:58.70,IMU,-57.13,-2.93,-997.07,-0.90,-1.66,0.37,12.75,35.55,34.95,26.5
2026/04/13 15:03:58.80,IMU,-40.04,-7.81,-1017.58,1.74,-1.68,1.34,13.65,36.60,34.80,26.7
2026/04/13 15:03:58.90,IMU,-41.99,-3.91,-1008.30,0.65,1.56,2.72,13.65,35.40,34.80,26.8
2026/04/13 15:03:59.00,IMU,-49.80,5.37,-1007.81,1.02,0.01,-1.24,14.25,36.75,35.25,26.7
2026/04/13 15:03:59.10,IMU,-23.44,-22.46,-1013.67,0.44,0.85,-1.03,14.10,36.15,34.35,26.7
2026/04/13 15:03:59.21,IMU,-43.46,0.98,-1027.34,-0.76,1.37,0.88,13.50,36.45,34.20,26.8
2026/04/13 15:03:59.31,IMU,-32.71,-13.18,-1003.91,-0.72,0.48,-0.44,13.50,36.45,34.65,26.8
2026/04/13 15:03:59.41,IMU,-38.57,-1.46,-1010.74,1.16,-1.50,-0.26,12.75,36.45,34.65,26.5
2026/04/13 15:03:59.51,IMU,-29.79,0.49,-1009.28,0.01,0.23,1.20,12.30,35.40,35.10,26.7
2026/04/13 15:03:59.61,IMU,-46.39,-0.98,-1015.63,-0.40,-1.05,1.80,12.75,36.45,34.65,26.6
2026/04/13 15:03:59.71,IMU,-36.62,-1.46,-1031.25,-0.15,-1.73,-0.93,13.50,35.25,34.20,26.8
2026/04/13 15:03:59.81,IMU,-36.62,1.95,-1011.23,-0.86,0.11,2.79,12.45,36.75,34.65,26.8
2026/04/13 15:03:59.91,IMU,-47.85,-3.91,-1006.84,-0.59,-2.58,-0.09,13.05,36.15,35.55,26.5
2026/04/13 15:04:00.01,IMU,-44.43,-15.63,-1018.07,1.27,3.04,-0.68,13.35,35.40,32.55,26.8
2026/04/13 15:04:00.11,IMU,-43.46,-2.44,-1013.67,-0.02,0.92,0.20,13.65,35.40,34.05,26.7
2026/04/13 15:04:00.21,IMU,-30.27,-11.72,-1016.60,0.15,1.76,-1.12,12.45,36.00,33.90,26.8
2026/04/13 15:04:00.31,IMU,-37.11,2.44,-1006.84,0.44,-0.57,0.30,13.65,35.85,33.60,26.6
2026/04/13 15:04:00.41,IMU,-29.79,-7.32,-1014.16,0.82,1.44,-1.40,14.25,37.95,34.65,26.7
2026/04/13 15:04:00.51,IMU,-25.88,-2.93,-1014.16,-0.90,-0.75,-1.97,13.50,37.95,35.25,26.8
2026/04/13 15:04:00.61,IMU,-39.55,1.95,-1014.65,-0.74,0.60,0.02,13.50,36.00,34.65,26.3
2026/04/13 15:04:00.71,IMU,-41.99,6.35,-1024.90,1.91,-0.50,1.42,13.05,37.35,34.05,26.7
2026/04/13 15:04:00.81,IMU,-54.20,1.95,-1005.37,1.92,3.60,-1.75,13.95,35.55,34.65,26.7
2026/04/13 15:04:00.91,IMU,-53.22,-10.25,-1016.11,1.11,1.56,-0.45,13.95,35.55,35.70,26.8
2026/04/13 15:04:01.01,IMU,-42.48,-7.32,-1026.37,1.23,0.39,-0.63,14.40,36.60,34.05,26.7
2026/04/13 15:04:01.11,IMU,-43.95,-9.28,-1006.35,1.09,0.04,1.33,13.50,37.20,33.45,26.6
2026/04/13 15:04:01.21,IMU,-50.29,2.93,-1015.14,-1.08,0.60,0.72,14.10,36.15,34.80,26.4
2026/04/13 15:04:01.31,IMU,-47.36,-1.46,-1019.53,0.76,-0.57,-1.16,13.95,36.45,34.95,26.7
2026/04/13 15:04:01.41,IMU,-29.30,-16.60,-1018.55,-0.08,-0.99,-0.22,12.60,35.85,34.80,26.7
2026/04/13 15:04:01.51,IMU,-41.99,-3.42,-1013.18,-0.87,-0.11,2.41,12.45,36.45,35.25,26.5
2026/04/13 15:04:01.61,IMU,-49.80,-2.44,-1018.07,0.31,-1.79,1.55,13.05,37.35,34.80,26.9
2026/04/13 15:04:01.71,IMU,-39.55,-2.93,-1014.16,0.66,0.38,0.24,13.05,37.35,34.05,26.7
2026/04/13 15:04:01.81,IMU,-45.41,-3.42,-1012.70,0.05,-1.49,-2.24,13.05,36.15,34.35,27.0
2026/04/13 15:04:01.91,IMU,-45.90,7.32,-1013.67,-0.89,0.30,-0.49,14.10,36.60,33.60,26.8
2026/04/13 15:04:02.01,IMU,-31.25,-7.32,-1014.16,0.57,-0.76,-0.56,14.10,36.15,34.05,26.8
2026/04/13 15:04:02.11,IMU,-36.62,14.65,-1014.65,-1.75,1.27,-1.23,14.40,35.85,33.60,26.7
2026/04/13 15:04:02.21,IMU,-40.53,-0.98,-1004.39,1.11,0.31,-1.70,13.65,37.35,34.05,26.8
2026/04/13 15:04:02.31,IMU,-36.62,-21.48,-1015.63,1.47,0.26,-0.07,14.40,36.15,33.60,26.8
2026/04/13 15:04:02.42,IMU,-39.55,0.98,-1015.14,-0.37,0.89,1.92,12.45,36.45,35.70,26.8
2026/04/13 15:04:02.52,IMU,-28.81,1.95,-1011.23,-0.68,-0.89,-0.31,13.20,36.45,33.90,26.9
2026/04/13 15:04:02.62,IMU,-50.78,-20.02,-1027.83,0.56,-0.48,1.14,13.05,35.85,34.05,26.7
2026/04/13 15:04:02.72,IMU,-39.55,-0.49,-1010.25,1.13,-0.31,-2.41,13.35,35.85,35.10,26.5
2026/04/13 15:04:02.82,IMU,-32.23,0.98,-1011.23,-0.02,0.57,1.94,14.10,36.90,34.35,26.6
2026/04/13 15:04:02.92,IMU,-42.97,-4.88,-1016.60,2.37,1.27,-0.95,11.85,36.15,34.05,26.7
2026/04/13 15:04:03.02,IMU,-38.57,-8.79,-1006.84,2.73,1.71,-0.73,12.00,35.25,34.20,26.7
2026/04/13 15:04:03.12,IMU,-33.20,0.49,-1013.18,0.01,-1.17,-0.36,14.85,35.85,34.35,26.4
2026/04/13 15:04:03.22,IMU,-38.57,-2.93,-1021.00,-0.19,-0.28,1.05,12.60,35.40,33.60,26.8
2026/04/13 15:04:03.32,IMU,-45.41,-0.49,-1022.95,1.34,0.26,-0.74,13.50,35.55,34.95,26.5
2026/04/13 15:04:03.42,IMU,-45.41,-5.86,-1020.02,2.95,2.47,-1.36,14.70,36.75,33.90,26.5
2026/04/13 15:04:03.52,IMU,-46.39,1.95,-1009.77,1.34,1.53,-3.02,14.10,36.60,34.35,27.0
2026/04/13 15:04:03.62,IMU,-37.11,3.91,-1009.77,-0.09,-1.28,-0.66,14.70,36.00,34.20,26.8
2026/04/13 15:04:03.72,IMU,-42.48,-1.95,-1017.58,-0.72,1.09,0.73,13.95,36.45,35.25,26.9
2026/04/13 15:04:03.82,IMU,-39.06,-0.49,-1008.79,0.95,0.10,0.55,13.95,36.45,33.90,26.8
2026/04/13 15:04:03.92,IMU,-51.27,0.98,-1008.30,1.50,-0.47,-0.77,14.10,36.15,35.10,26.6
2026/04/13 15:04:04.02,IMU,-49.80,-1.95,-1026.37,0.77,-0.58,0.46,13.20,36.00,34.20,26.8
2026/04/13 15:04:04.12,IMU,-49.32,-4.39,-1006.35,1.58,1.66,-1.92,12.30,35.10,35.10,26.7
2026/04/13 15:04:04.22,IMU,-42.48,-2.93,-1013.67,0.35,-0.82,1.80,13.05,34.65,34.05,26.8
2026/04/13 15:04:04.32,IMU,-44.92,-14.16,-1013.18,0.27,-0.05,1.69,13.50,36.45,33.90,26.7
2026/04/13 15:04:04.42,IMU,-42.97,-1.46,-1006.35,0.44,0.05,-1.90,13.65,36.60,33.60,26.7
2026/04/13 15:04:04.52,IMU,-46.88,-0.98,-1016.11,-1.60,0.94,-1.44,14.25,35.55,34.65,26.7
2026/04/13 15:04:04.62,IMU,-52.73,-2.44,-1012.21,0.82,1.42,1.16,13.50,35.55,34.20,26.9
2026/04/13 15:04:04.72,IMU,-49.80,-1.46,-1018.07,1.56,-0.65,-2.83,13.20,35.55,34.20,27.0
2026/04/13 15:04:04.82,IMU,-46.39,3.91,-1005.86,-0.52,-0.75,0.26,14.10,36.15,34.35,26.6
2026/04/13 15:04:04.92,IMU,-34.67,3.42,-1013.18,1.99,0.26,1.88,14.25,37.20,34.20,26.7
2026/04/13 15:04:05.02,IMU,-38.57,2.44,-1010.74,-1.67,1.03,-0.06,12.45,35.55,33.90,26.7
2026/04/13 15:04:05.12,IMU,-55.66,-11.23,-1003.42,1.89,1.08,-1.95,10.05,36.15,37.35,26.9
2026/04/13 15:04:05.22,IMU,-40.53,7.32,-1024.41,-0.94,-0.18,-0.67,13.35,35.10,32.55,26.7
2026/04/13 15:04:05.32,IMU,-38.57,-8.79,-1022.46,0.63,1.82,0.89,13.05,36.60,34.05,26.8
2026/04/13 15:04:05.42,IMU,-37.11,0.49,-1015.63,0.07,1.20,-2.83,12.60,36.60,33.00,26.8
2026/04/13 15:04:05.52,IMU,-36.62,-9.28,-1024.41,1.01,-0.52,-0.18,13.50,36.00,34.20,26.5
2026/04/13 15:04:05.63,IMU,-53.71,-9.77,-1014.16,0.25,1.50,-0.59,13.20,36.00,34.65,26.8
2026/04/13 15:04:05.73,IMU,-39.06,11.72,-1016.60,-0.47,0.14,1.91,13.50,36.75,33.90,26.6
2026/04/13 15:04:05.83,IMU,-35.64,2.44,-1006.35,0.73,1.11,2.18,13.50,36.75,34.20,26.8
2026/04/13 15:04:05.93,IMU,-43.95,10.25,-1010.25,1.54,1.79,2.39,13.95,36.00,34.95,26.8
2026/04/13 15:04:06.03,IMU,-51.76,-6.84,-1016.11,0.57,-0.72,0.26,12.75,36.45,34.95,26.8
2026/04/13 15:04:06.13,IMU,-41.99,-1.46,-1021.97,0.56,0.49,-1.20,13.50,36.00,33.90,26.6
2026/04/13 15:04:06.23,IMU,-32.71,4.39,-1014.16,-0.21,1.27,0.73,13.35,36.90,35.10,27.0
2026/04/13 15:04:06.33,IMU,-39.55,0.00,-1009.77,0.15,1.37,-1.28,13.95,36.45,33.90,26.9
2026/04/13 15:04:06.43,IMU,-30.27,6.35,-1014.16,0.03,-1.52,0.21,13.95,35.55,32.70,26.7
2026/04/13 15:04:06.53,IMU,-37.60,-4.88,-1025.88,0.50,-0.08,-0.80,13.05,36.90,33.60,26.8
2026/04/13 15:04:06.63,IMU,-46.39,-0.49,-1013.18,-0.13,1.53,-0.05,11.85,36.15,32.55,26.8
2026/04/13 15:04:06.73,IMU,-42.48,-5.86,-1005.37,0.37,-0.01,0.18,13.65,37.35,34.35,27.1
2026/04/13 15:04:06.83,IMU,-29.30,1.95,-992.19,0.30,0.22,0.72,13.20,35.25,35.70,26.5
2026/04/13 15:04:06.93,IMU,-48.83,-11.23,-1031.25,-0.20,0.36,3.08,12.60,36.15,34.80,27.0
2026/04/13 15:04:07.03,IMU,-39.06,6.84,-1021.97,-0.11,1.08,0.35,13.35,36.90,34.05,26.8
2026/04/13 15:04:07.13,IMU,-45.90,0.00,-1021.97,3.05,-1.19,-1.16,13.50,37.50,35.70,26.5
2026/04/13 15:04:07.23,IMU,-47.85,-5.37,-1004.39,1.21,-0.86,1.51,14.25,35.25,34.65,26.7
2026/04/13 15:04:07.34,IMU,-46.88,-15.14,-1010.74,-0.31,-0.51,-0.34,13.35,36.15,34.35,26.8
2026/04/13 15:04:07.44,IMU,-46.39,1.46,-1016.60,1.38,1.95,-3.76,11.85,35.85,34.35,26.9
2026/04/13 15:04:07.54,IMU,-38.09,1.46,-1017.58,2.71,-0.37,-0.15,14.25,36.75,34.95,26.6
2026/04/13 15:04:07.64,IMU,-27.34,0.49,-1016.60,-0.69,-0.80,-0.35,12.60,36.60,34.35,26.9
2026/04/13 15:04:07.74,IMU,-37.60,-10.74,-1013.67,-0.20,0.31,1.50,14.70,35.25,35.70,26.8
2026/04/13 15:04:07.84,IMU,-42.97,-5.37,-1014.65,1.83,3.05,1.06,12.00,34.50,33.90,26.6
2026/04/13 15:04:07.94,IMU,-50.29,-3.91,-1021.48,0.18,0.11,0.31,12.60,36.15,34.35,26.7
2026/04/13 15:04:08.04,IMU,-41.50,-5.37,-1009.28,-0.08,-0.04,-2.17,13.50,36.00,34.20,26.5
2026/04/13 15:04:08.14,IMU,-40.04,4.88,-1018.07,0.97,1.79,-1.70,13.35,36.15,35.10,26.7
2026/04/13 15:04:08.24,IMU,-39.06,-9.28,-1022.95,0.36,0.21,-0.02,13.50,36.00,34.65,26.9
2026/04/13 15:04:08.34,IMU,-31.74,0.00,-1001.46,0.73,1.15,-1.82,13.35,36.15,34.05,26.9
2026/04/13 15:04:08.44,IMU,-48.83,-2.93,-1027.34,2.11,-0.58,1.95,13.65,35.40,34.05,26.6
2026/04/13 15:04:08.54,IMU,-24.90,-2.93,-1004.39,-0.03,1.09,1.78,13.35,36.15,34.80,26.8
2026/04/13 15:04:08.64,IMU,-32.71,0.49,-1016.11,-0.22,1.19,-0.98,13.65,36.15,34.80,26.7
2026/04/13 15:04:08.74,IMU,-50.29,6.84,-1018.55,-0.90,-0.68,-2.18,13.35,36.15,34.35,26.8
2026/04/13 15:04:08.84,IMU,-29.79,-2.44,-1019.53,1.61,0.91,-0.18,13.05,36.60,35.55,26.9
2026/04/13 15:04:08.94,IMU,-31.74,-10.74,-1016.11,0.63,-0.37,1.08,13.65,36.15,33.60,26.9
2026/04/13 15:04:09.04,IMU,-46.39,1.95,-1010.74,0.02,-1.95,2.07,13.50,36.45,34.65,26.8
2026/04/13 15:04:09.14,IMU,-39.55,-10.25,-1013.67,-0.41,0.49,0.09,13.35,35.85,35.10,26.6
2026/04/13 15:04:09.24,IMU,-36.62,2.93,-1017.09,-0.56,0.49,-2.92,13.35,37.35,34.05,26.7
2026/04/13 15:04:09.34,IMU,-48.83,-13.67,-1012.70,0.08,1.23,1.31,12.75,36.75,34.20,26.7
2026/04/13 15:04:09.44,IMU,-47.36,17.09,-1021.00,0.76,-0.19,-1.61,14.70,36.45,35.25,26.8
2026/04/13 15:04:09.54,IMU,-47.36,-8.30,-1016.11,0.85,0.78,0.79,12.60,36.15,34.80,26.7
2026/04/13 15:04:09.64,IMU,-40.53,-11.72,-1020.51,0.08,1.05,-0.66,14.25,36.45,33.45,26.5
2026/04/13 15:04:09.74,IMU,-53.22,0.49,-1018.55,0.08,1.24,-0.81,13.95,36.45,34.20,26.9
2026/04/13 15:04:09.84,IMU,-41.02,9.28,-1004.39,-0.60,1.35,0.89,13.50,36.45,34.20,26.9
2026/04/13 15:04:09.94,IMU,-38.57,5.37,-1018.55,1.15,1.37,-1.02,12.60,35.85,34.35,26.9
2026/04/13 15:04:10.04,IMU,-30.27,-1.46,-1027.83,2.68,0.41,-0.11,12.45,36.00,33.90,26.8
2026/04/13 15:04:10.14,IMU,-40.53,-15.14,-1019.53,0.43,0.74,4.02,12.30,35.10,34.05,27.0
2026/04/13 15:04:10.24,IMU,-36.13,-5.37,-1003.42,0.37,0.40,1.24,13.20,36.45,33.90,26.5
2026/04/13 15:04:10.34,IMU,-41.99,5.37,-1021.00,2.19,0.37,-2.11,12.75,36.00,34.65,26.8
2026/04/13 15:04:10.44,IMU,-50.78,-2.93,-1018.07,-0.39,-1.27,0.18,14.10,36.15,34.05,26.9
2026/04/13 15:04:10.55,IMU,-34.18,-7.81,-1007.81,1.76,0.87,-0.14,12.60,36.15,33.60,26.6
2026/04/13 15:04:10.65,IMU,-40.04,-6.35,-1012.21,-1.81,-0.47,2.28,13.65,37.35,35.10,26.7
2026/04/13 15:04:10.75,IMU,-50.29,-10.25,-1012.70,1.36,0.83,0.95,13.20,36.75,34.95,26.7
2026/04/13 15:04:10.85,IMU,-31.74,-1.46,-1023.44,-0.80,1.37,-0.48,13.65,38.10,35.85,26.6
2026/04/13 15:04:10.95,IMU,-38.57,-9.77,-1004.88,-0.79,1.47,-0.64,13.05,35.10,34.35,26.9
2026/04/13 15:04:11.05,IMU,-44.43,-10.25,-1026.86,0.45,1.92,-0.59,13.65,35.10,35.10,27.0
2026/04/13 15:04:11.15,IMU,-38.57,-0.98,-1011.72,-0.04,-0.73,-0.31,12.75,37.50,35.70,26.8
2026/04/13 15:04:11.25,IMU,-49.80,-6.84,-1005.37,1.32,-0.11,-0.27,13.35,35.85,34.80,26.8
2026/04/13 15:04:11.35,IMU,-35.64,0.49,-1026.86,0.51,0.18,-1.95,13.05,36.90,34.35,26.6
2026/04/13 15:04:11.45,IMU,-42.48,6.84,-1011.72,0.39,1.73,1.85,12.75,36.00,33.90,26.7
2026/04/13 15:04:11.55,IMU,-38.57,-18.07,-1009.77,-0.33,-0.53,2.53,13.20,35.55,34.95,26.8
2026/04/13 15:04:11.65,IMU,-41.99,-8.30,-1015.14,-2.51,0.35,1.75,13.35,35.40,34.35,26.7
2026/04/13 15:04:11.75,IMU,-43.95,-2.93,-1009.77,1.31,-0.15,-0.66,12.60,35.40,34.35,26.7
2026/04/13 15:04:11.85,IMU,-31.74,-4.88,-1009.77,-0.13,0.69,-0.04,14.25,36.75,34.95,26.8
2026/04/13 15:04:11.95,IMU,-41.50,-9.28,-1030.27,1.11,0.51,-0.13,12.00,37.20,34.20,26.6
2026/04/13 15:04:12.05,IMU,-33.69,-3.91,-1019.53,1.46,1.63,0.17,12.60,35.85,34.05,26.8
2026/04/13 15:04:12.15,IMU,-41.02,-11.72,-1022.46,0.11,2.24,-1.53,14.25,35.55,34.65,26.8
2026/04/13 15:04:12.25,IMU,-42.97,-12.21,-1014.65,0.89,2.08,1.22,14.10,35.85,33.30,27.0
2026/04/13 15:04:12.35,IMU,-47.36,-5.37,-1009.28,0.06,-1.13,0.56,14.25,35.25,33.45,26.7
2026/04/13 15:04:12.45,IMU,-45.41,3.91,-1016.60,-0.40,0.12,0.15,14.25,36.75,33.15,27.0
2026/04/13 15:04:12.55,IMU,-40.04,-10.74,-1014.65,1.04,-0.12,-1.52,12.45,36.45,33.45,26.9
2026/04/13 15:04:12.65,IMU,-39.06,-0.49,-1008.30,-0.44,0.33,1.47,12.60,36.15,34.05,26.8
2026/04/13 15:04:12.75,IMU,-57.13,1.46,-1002.93,-0.34,0.24,1.50,14.25,36.45,33.90,26.9
2026/04/13 15:04:12.85,IMU,-42.97,9.28,-1010.74,-0.76,0.27,-1.29,13.50,35.25,33.45,26.7
2026/04/13 15:04:12.95,IMU,-38.09,-5.86,-1011.23,1.65,-0.83,3.13,13.65,36.15,34.35,27.0
2026/04/13 15:04:13.05,IMU,-29.30,-8.79,-1017.09,0.12,-0.26,-0.29,14.10,36.60,34.05,26.9
2026/04/13 15:04:13.15,IMU,-34.67,-12.21,-1012.70,0.43,-0.16,0.18,15.15,35.85,35.10,27.0
2026/04/13 15:04:13.25,IMU,-34.18,-0.49,-1021.48,1.79,-0.91,1.19,12.30,36.15,36.15,26.5
2026/04/13 15:04:13.35,IMU,-41.02,-9.28,-1022.95,1.04,-0.50,1.51,13.35,37.65,34.05,27.0
2026/04/13 15:04:13.45,IMU,-41.50,-3.91,-1017.09,1.53,3.18,0.64,13.20,36.75,35.25,26.7
2026/04/13 15:04:13.55,IMU,-36.13,1.95,-1013.18,1.44,-0.58,-1.71,13.65,35.40,35.10,26.8
2026/04/13 15:04:13.65,IMU,-39.55,-9.77,-1022.46,-1.70,0.38,0.38,14.10,37.35,33.00,26.8
2026/04/13 15:04:13.76,IMU,-44.92,14.16,-1014.65,1.92,-1.08,-0.89,13.95,36.75,34.65,26.7
2026/04/13 15:04:13.86,IMU,-43.95,-5.86,-1020.51,0.18,2.00,1.72,12.60,36.60,33.30,26.8
2026/04/13 15:04:13.96,IMU,-28.32,-1.95,-1024.90,0.03,1.19,0.56,13.65,35.85,35.10,27.1
2026/04/13 15:04:14.06,IMU,-43.95,4.39,-1013.18,1.48,-0.33,0.80,13.65,35.85,34.05,26.8
2026/04/13 15:04:14.16,IMU,-23.93,-0.98,-1020.51,-0.63,1.28,0.49,14.40,34.65,33.30,26.9
2026/04/13 15:04:14.26,IMU,-32.71,-6.35,-1016.11,0.21,0.34,-0.81,11.10,35.85,37.35,26.9
2026/04/13 15:04:14.36,IMU,-35.16,8.30,-1023.93,1.40,1.95,0.02,12.45,35.25,33.15,26.8
2026/04/13 15:04:14.46,IMU,-35.64,6.35,-1007.81,-0.68,-0.26,-0.30,14.10,36.15,34.80,26.8
2026/04/13 15:04:14.56,IMU,-48.83,7.32,-1020.51,1.82,0.69,-0.48,14.70,38.25,34.95,27.0
2026/04/13 15:04:14.66,IMU,-43.95,11.72,-1009.77,-0.93,-1.28,-1.82,13.05,36.60,35.10,26.8
2026/04/13 15:04:14.76,IMU,-41.50,-10.25,-1011.72,-1.24,-1.53,-1.73,13.65,35.85,33.30,27.0
2026/04/13 15:04:14.86,IMU,-43.95,-10.25,-1016.11,1.63,-0.23,0.49,14.85,35.85,34.05,26.8
2026/04/13 15:04:14.96,IMU,-42.97,10.25,-1018.55,2.54,-0.50,0.91,14.10,36.15,34.35,26.7
2026/04/13 15:04:15.06,IMU,-45.41,-15.63,-1016.11,1.35,1.49,2.69,13.50,36.45,33.90,26.8
2026/04/13 15:04:15.16,IMU,-40.04,-4.88,-1008.79,-1.63,0.00,-1.47,14.40,35.40,34.80,26.7
2026/04/13 15:04:15.26,IMU,-35.64,-8.79,-1014.65,-0.32,0.91,1.40,13.35,33.60,36.90,26.8
2026/04/13 15:04:15.36,IMU,-48.34,4.88,-1007.81,-0.89,0.01,-2.17,13.05,35.85,34.35,26.8
2026/04/13 15:04:15.46,IMU,-41.50,5.86,-1009.28,-0.24,1.85,-1.59,13.65,35.40,34.35,26.5
2026/04/13 15:04:15.56,IMU,-24.41,0.00,-1015.14,1.37,-1.44,0.28,13.20,36.45,34.65,26.9
2026/04/13 15:04:15.66,IMU,-45.90,-7.81,-1017.09,0.33,0.17,-0.73,13.50,36.75,35.25,27.1
2026/04/13 15:04:15.76,IMU,-39.55,-4.88,-1023.44,0.88,0.32,0.42,13.20,36.45,34.65,26.9
2026/04/13 15:04:15.86,IMU,-31.74,-8.30,-1021.00,0.17,0.31,1.19,12.75,36.45,34.20,26.7
2026/04/13 15:04:15.96,IMU,-41.99,2.44,-1017.58,0.53,-0.11,1.85,13.20,36.00,33.45,26.8
2026/04/13 15:04:16.07,IMU,-50.78,-0.49,-1024.41,0.75,-0.52,2.63,13.05,36.15,35.85,26.7
2026/04/13 15:04:16.17,IMU,-41.02,10.25,-1000.49,1.44,-0.13,-0.08,13.50,34.80,34.95,26.6
2026/04/13 15:04:16.27,IMU,-49.32,-5.86,-1014.16,1.49,0.51,0.73,14.40,34.65,34.35,26.8
2026/04/13 15:04:16.37,IMU,-36.62,-7.81,-1006.84,-0.04,0.93,-1.31,12.00,37.20,34.65,27.0
2026/04/13 15:04:16.47,IMU,-44.43,4.39,-1015.14,0.80,-1.49,-3.22,13.95,36.75,33.90,26.8
2026/04/13 15:04:16.57,IMU,-21.48,-4.39,-1013.67,0.40,-0.21,1.95,13.05,36.90,34.80,27.0
2026/04/13 15:04:16.67,IMU,-47.36,-10.25,-1027.34,0.01,-0.03,-1.18,13.95,37.20,34.65,27.0
2026/04/13 15:04:16.77,IMU,-29.30,-6.35,-1004.88,0.08,-0.31,-0.52,15.60,36.15,34.35,27.1
2026/04/13 15:04:16.87,IMU,-43.46,-8.79,-1015.14,0.49,1.09,0.68,14.40,36.15,33.00,26.7
2026/04/13 15:04:16.97,IMU,-53.22,-0.49,-1027.83,0.46,1.20,-0.58,12.75,35.55,34.65,26.8
2026/04/13 15:04:17.07,IMU,-41.50,-11.23,-1006.84,-1.55,-0.01,0.65,12.60,35.40,34.80,26.7
2026/04/13 15:04:17.17,IMU,-39.55,-2.44,-1022.46,-0.42,0.57,1.14,12.45,35.55,34.65,27.2
2026/04/13 15:04:17.27,IMU,-35.64,2.44,-1018.07,1.44,0.79,-1.02,14.10,36.60,34.05,26.9
2026/04/13 15:04:17.37,IMU,-33.20,-14.16,-1016.60,1.22,1.95,-1.43,13.35,37.35,34.35,26.8
2026/04/13 15:04:17.47,IMU,-45.90,4.39,-1017.58,1.26,-0.22,1.48,12.60,36.15,35.10,26.4
2026/04/13 15:04:17.57,IMU,-40.04,-3.91,-1020.51,-0.43,0.12,-1.20,14.85,36.15,33.60,26.8
2026/04/13 15:04:17.67,IMU,-38.09,-0.49,-1015.14,0.79,-0.69,0.83,12.30,35.40,34.35,26.8
2026/04/13 15:04:17.77,IMU,-41.99,-2.93,-1025.88,1.00,-0.82,-2.01,13.05,36.60,33.30,26.8
2026/04/13 15:04:17.87,IMU,-46.88,6.35,-1017.09,0.50,1.88,0.24,13.95,37.50,34.95,26.7
2026/04/13 15:04:17.97,IMU,-34.67,-7.32,-1009.28,2.08,0.74,0.83,14.85,35.40,34.05,26.7
2026/04/13 15:04:18.07,IMU,-37.60,-1.46,-1011.72,1.54,-1.38,-0.18,12.75,36.75,33.90,26.9
2026/04/13 15:04:18.17,IMU,-46.39,-3.42,-1015.63,0.60,-0.13,1.51,13.20,35.55,34.20,26.7
2026/04/13 15:04:18.27,IMU,-29.79,-8.30,-1015.14,0.21,-0.79,-2.27,12.45,36.45,34.95,26.8
2026/04/13 15:04:18.37,IMU,-40.53,11.72,-1016.11,1.33,0.79,1.57,13.20,36.45,34.20,27.0
2026/04/13 15:04:18.47,IMU,-47.36,4.88,-998.05,-1.14,0.00,-0.63,13.20,37.20,34.65,27.0
2026/04/13 15:04:18.57,IMU,-35.64,-6.35,-1019.04,1.49,0.40,1.21,13.20,36.45,34.20,27.1
2026/04/13 15:04:18.67,IMU,-37.11,-4.39,-1015.63,0.94,0.37,1.11,13.95,36.75,34.65,26.8
2026/04/13 15:04:18.77,IMU,-37.60,-0.98,-1016.11,0.08,-0.92,1.44,13.95,34.50,34.20,26.8
2026/04/13 15:04:18.87,IMU,-38.57,-3.91,-1010.25,-0.31,0.99,-1.08,13.05,36.15,33.00,26.8
2026/04/13 15:04:18.97,IMU,-37.60,-14.16,-1001.46,2.01,-1.53,3.47,12.30,36.15,35.10,26.8
2026/04/13 15:04:19.07,IMU,-29.79,-1.46,-1009.77,0.06,-0.18,-0.10,14.25,36.45,34.95,27.0
2026/04/13 15:04:19.17,IMU,-44.43,-2.44,-1019.53,-0.30,0.56,-0.12,13.20,36.75,34.65,27.1
2026/04/13 15:04:19.28,IMU,-41.50,-3.42,-1010.74,1.07,1.66,0.40,13.20,36.75,34.20,26.8
2026/04/13 15:04:19.38,IMU,-43.95,-6.84,-1019.04,0.15,1.15,1.29,14.40,35.85,35.10,27.0
2026/04/13 15:04:19.48,IMU,-36.13,0.98,-1017.09,-1.00,0.78,-0.24,13.50,36.45,33.45,26.8
2026/04/13 15:04:19.58,IMU,-48.83,4.88,-1015.63,-0.84,1.60,-0.56,14.40,35.40,34.35,26.8
2026/04/13 15:04:19.68,IMU,-50.78,2.93,-1026.86,-0.26,2.04,-4.12,13.05,36.60,35.55,26.9
2026/04/13 15:04:19.78,IMU,-43.46,0.49,-1013.18,0.77,-0.71,3.15,13.65,37.35,34.05,26.8
2026/04/13 15:04:19.88,IMU,-41.02,-14.65,-1010.74,2.31,-2.41,0.82,12.75,35.55,33.15,27.1
2026/04/13 15:04:19.98,IMU,-32.23,2.44,-1028.32,2.08,-0.15,-0.08,12.60,35.85,34.80,26.8
2026/04/13 15:04:20.08,IMU,-32.71,10.25,-1013.67,0.82,1.46,-0.45,11.70,37.20,34.65,26.8
2026/04/13 15:04:20.18,IMU,-38.09,-3.91,-1018.07,0.54,0.15,0.05,13.65,36.15,34.05,26.8
2026/04/13 15:04:20.28,IMU,-44.43,-12.21,-1024.41,1.35,0.58,3.32,13.65,35.85,33.30,26.7
2026/04/13 15:04:20.38,IMU,-52.73,-4.88,-1018.55,0.98,-1.74,-1.52,12.60,35.85,34.05,26.9
2026/04/13 15:04:20.48,IMU,-33.69,-4.39,-1017.09,0.79,0.87,-0.86,14.40,36.60,34.35,26.7
2026/04/13 15:04:20.58,IMU,-48.34,-5.86,-1018.55,-0.68,1.13,0.45,13.05,36.60,33.00,27.0
2026/04/13 15:04:20.68,IMU,-42.48,4.88,-1020.51,-0.40,0.65,-1.11,14.70,36.75,34.65,26.9
2026/04/13 15:04:20.78,IMU,-34.67,8.79,-1005.37,0.58,-0.48,1.26,13.05,36.15,33.60,26.8
2026/04/13 15:04:20.88,IMU,-41.99,-24.41,-1007.32,1.18,0.63,-2.98,12.75,35.25,36.00,26.9
2026/04/13 15:04:20.98,IMU,-45.41,-6.35,-1010.74,-0.29,-1.78,0.52,14.40,35.40,33.30,26.8
2026/04/13 15:04:21.08,IMU,-42.48,1.46,-1016.11,-0.76,0.16,-1.99,11.70,36.75,33.15,26.9
2026/04/13 15:04:21.18,IMU,-36.13,-9.77,-1006.35,-1.03,1.32,-0.80,13.50,36.00,33.90,26.8
2026/04/13 15:04:21.28,IMU,-39.55,0.49,-1016.60,-0.02,-0.70,1.58,13.95,36.45,34.65,27.0
2026/04/13 15:04:21.38,IMU,-45.41,-5.86,-1016.11,0.51,2.24,-0.74,13.05,36.60,33.60,26.6
2026/04/13 15:04:21.48,IMU,-37.11,-14.16,-990.72,3.63,-2.21,2.04,13.20,35.55,33.15,27.2
2026/04/13 15:04:21.58,IMU,-42.48,-6.35,-1025.88,0.07,-1.44,0.90,13.05,35.85,34.05,26.9
2026/04/13 15:04:21.68,IMU,-42.48,5.86,-1000.49,-0.12,-0.76,0.67,12.00,37.20,34.20,27.0
2026/04/13 15:04:21.78,IMU,-40.04,-11.23,-1016.60,0.21,-1.76,0.39,13.65,37.35,34.35,26.9
2026/04/13 15:04:21.88,IMU,-41.99,-8.30,-1001.95,0.79,0.66,-0.53,14.40,36.60,34.80,26.8
2026/04/13 15:04:21.98,IMU,-43.95,0.98,-1017.09,-0.30,-0.65,-1.48,13.05,35.40,34.05,27.0
2026/04/13 15:04:22.08,IMU,-43.95,8.30,-1010.25,0.59,0.61,0.50,13.20,36.75,34.65,26.8
2026/04/13 15:04:22.18,IMU,-38.57,0.98,-1026.37,0.43,-0.05,1.91,13.65,36.90,36.60,26.9
2026/04/13 15:04:22.28,IMU,-45.41,-10.74,-1002.93,0.12,0.83,3.08,13.50,35.55,34.65,27.0
2026/04/13 15:04:22.39,IMU,-40.04,4.39,-1027.83,0.83,0.90,0.88,15.00,36.45,34.20,27.0
2026/04/13 15:04:22.49,IMU,-36.13,-5.37,-1002.93,2.18,0.24,1.91,13.50,37.50,34.95,26.7
2026/04/13 15:04:22.59,IMU,-45.90,-3.42,-1024.41,0.60,1.50,-1.24,14.40,36.60,34.80,27.0
2026/04/13 15:04:22.69,IMU,-35.64,-2.44,-1015.14,1.30,1.08,2.41,11.55,37.35,35.10,26.9
2026/04/13 15:04:22.79,IMU,-35.16,-5.37,-1020.02,0.03,1.53,1.45,13.95,35.55,34.65,26.9
2026/04/13 15:04:22.89,IMU,-41.50,-8.30,-1015.63,0.33,-0.61,-1.78,13.65,36.60,34.80,27.0
2026/04/13 15:04:22.99,IMU,-41.99,5.86,-1018.55,-1.24,0.60,1.76,13.65,35.40,33.60,26.6
2026/04/13 15:04:23.09,IMU,-39.55,3.91,-1005.37,-0.31,-0.68,-0.29,12.75,36.45,34.65,26.8
2026/04/13 15:04:23.19,IMU,-56.64,-1.95,-1012.21,0.18,2.44,-1.53,13.20,36.00,34.95,26.9
2026/04/13 15:04:23.29,IMU,-35.16,0.00,-1003.91,0.15,0.37,0.34,13.95,35.55,34.65,26.9
2026/04/13 15:04:23.39,IMU,-44.92,2.93,-1023.44,-1.51,0.73,-4.08,11.10,35.40,36.60,26.7
2026/04/13 15:04:24.20,IMU,-33.20,-5.86,-1014.65,0.79,-0.29,3.18,14.25,36.00,35.25,27.1
2026/04/13 15:04:24.30,IMU,-41.99,-3.42,-1013.67,0.80,0.80,-0.22,13.05,37.35,35.85,26.7
2026/04/13 15:04:24.40,IMU,-47.36,-1.95,-1027.34,-0.39,-1.43,-0.66,10.80,34.35,38.70,26.8
2026/04/13 15:04:24.50,IMU,-46.39,-35.16,-997.07,1.69,0.55,12.73,14.25,34.80,33.90,26.8
2026/04/13 15:04:24.60,IMU,4.39,-50.78,-942.87,12.06,4.49,-3.71,13.65,35.40,34.35,27.2
2026/04/13 15:04:24.70,IMU,-1.46,-98.63,-1038.57,18.99,-19.51,-2.05,14.85,35.10,36.15,26.9
2026/04/13 15:04:24.80,IMU,-20.51,-129.88,-1107.91,-4.15,-2.77,17.44,15.90,35.85,34.80,26.9
2026/04/13 15:04:24.90,IMU,-193.36,-31.74,-1180.66,-15.82,-33.82,-25.46,19.05,37.95,34.20,26.8
2026/04/13 15:04:25.00,IMU,164.55,-95.70,-833.98,36.24,-20.27,9.97,24.00,40.35,33.00,26.7
2026/04/13 15:04:25.10,IMU,61.52,-175.29,-977.54,-9.78,40.49,73.39,35.25,37.50,29.85,27.1
2026/04/13 15:04:25.20,IMU,-80.57,-114.26,-1055.18,74.18,52.02,19.63,34.65,32.70,24.30,26.8
2026/04/13 15:04:25.30,IMU,-183.11,-27.34,-1082.52,-0.09,-39.36,30.60,27.90,20.85,22.35,26.9
2026/04/13 15:04:25.41,IMU,-52.25,23.44,-1079.59,-15.15,53.25,59.75,26.25,21.75,26.10,27.1
2026/04/13 15:04:25.51,IMU,-304.20,-16.11,-947.75,-1.73,-39.34,26.37,27.30,25.95,21.75,27.1
2026/04/13 15:04:25.61,IMU,-217.29,-31.74,-1012.70,-3.18,30.31,23.44,28.80,24.45,19.65,26.9
2026/04/13 15:04:25.71,IMU,-326.66,-4.39,-1069.82,32.10,-38.84,-7.10,24.60,18.15,18.30,27.0
2026/04/13 15:04:25.81,IMU,-193.85,-101.56,-1047.36,-25.68,7.08,28.67,28.20,11.25,8.25,27.0
2026/04/13 15:04:25.91,IMU,-161.62,-55.18,-948.73,2.34,20.21,-4.71,33.75,23.10,7.80,26.8
2026/04/13 15:04:26.01,IMU,-79.59,-67.87,-1013.18,11.58,4.29,-6.99,31.20,29.10,10.35,27.0
2026/04/13 15:04:26.11,IMU,-61.04,-71.29,-919.43,25.98,18.91,-4.63,29.85,30.15,13.50,26.7
2026/04/13 15:04:26.21,IMU,-29.79,-156.74,-1008.79,11.89,-0.23,-2.62,32.70,31.80,13.95,27.0
2026/04/13 15:04:26.31,IMU,-82.03,-124.02,-1054.69,3.66,-0.19,-3.65,33.00,30.75,15.15,27.1
2026/04/13 15:04:26.41,IMU,-26.86,-136.23,-977.54,-7.34,2.46,-2.03,31.35,31.95,19.20,27.1
2026/04/13 15:04:26.51,IMU,-48.83,-155.27,-1036.13,-2.17,15.89,-0.27,28.65,33.30,19.05,26.7
2026/04/13 15:04:26.61,IMU,-25.39,-111.82,-968.75,-4.20,2.54,0.79,27.45,33.30,20.85,26.9
2026/04/13 15:04:26.71,IMU,2.44,-103.52,-1015.14,4.34,-2.21,-1.04,26.25,34.35,20.25,26.8
2026/04/13 15:04:26.81,IMU,-79.10,-99.12,-1026.37,-4.34,0.75,-2.73,26.40,33.30,20.55,26.9
2026/04/13 15:04:26.91,IMU,-22.46,-86.91,-991.21,-4.05,8.86,6.46,24.15,34.05,20.85,26.9
2026/04/13 15:04:27.01,IMU,13.18,-82.52,-995.61,2.48,13.07,6.68,24.75,33.90,22.05,26.4
2026/04/13 15:04:27.11,IMU,12.21,-102.05,-973.63,1.99,3.92,2.98,23.10,33.30,21.90,27.0
2026/04/13 15:04:27.21,IMU,0.00,-104.98,-995.61,1.40,0.57,2.22,22.95,35.85,22.05,26.7
2026/04/13 15:04:27.31,IMU,-9.77,-86.43,-1017.09,-3.13,-3.17,-1.12,23.25,34.35,20.25,26.9
2026/04/13 15:04:27.41,IMU,-5.86,-100.59,-1022.46,-1.95,2.89,2.49,25.35,33.75,21.15,26.7
2026/04/13 15:04:27.51,IMU,19.53,-104.00,-979.00,-2.18,1.22,0.19,22.50,34.65,21.45,26.9
2026/04/13 15:04:27.61,IMU,11.23,-80.08,-1017.58,0.54,2.76,-1.59,23.25,35.40,21.75,26.9
2026/04/13 15:04:27.71,IMU,-16.11,-79.10,-1021.97,-0.66,1.44,2.21,23.25,34.65,21.00,26.9
2026/04/13 15:04:27.81,IMU,21.97,-78.12,-1002.93,-1.34,2.47,1.08,23.25,34.35,21.45,26.8
2026/04/13 15:04:27.91,IMU,-9.77,-83.50,-1021.97,1.77,-0.32,-0.73,24.00,34.35,20.25,27.0
2026/04/13 15:04:28.01,IMU,0.00,-69.82,-1007.32,1.82,1.34,4.27,23.25,34.65,20.25,26.8
2026/04/13 15:04:28.11,IMU,-0.49,-81.54,-1029.30,-1.44,0.27,-0.28,23.85,34.50,21.60,26.9
2026/04/13 15:04:28.22,IMU,-6.84,-58.59,-979.98,-0.80,4.50,-2.50,22.05,34.05,20.85,27.0
2026/04/13 15:04:28.32,IMU,8.30,-79.10,-1016.60,-2.40,3.36,-1.38,22.20,35.10,21.00,26.6
2026/04/13 15:04:28.42,IMU,7.32,-58.11,-1002.93,-1.47,1.40,-0.21,20.85,34.80,21.15,26.8
2026/04/13 15:04:28.52,IMU,9.77,-79.10,-1011.72,-0.53,2.87,0.11,20.55,35.55,20.85,26.7
2026/04/13 15:04:28.62,IMU,4.88,-65.92,-998.54,-0.61,1.54,1.16,21.75,34.35,19.65,27.0
2026/04/13 15:04:28.72,IMU,0.00,-65.43,-1013.67,-1.85,1.79,0.33,21.30,34.80,23.10,27.0
2026/04/13 15:04:28.82,IMU,4.39,-65.92,-1005.86,-0.72,1.65,3.85,21.45,35.10,22.50,26.9
2026/04/13 15:04:28.92,IMU,24.90,-65.43,-1002.44,1.40,-0.62,0.71,22.05,33.75,23.40,26.7
2026/04/13 15:04:29.02,IMU,22.46,-76.17,-1020.02,-0.75,-0.42,2.65,21.60,35.55,21.90,26.8
2026/04/13 15:04:29.12,IMU,-5.37,-66.41,-1002.44,-0.27,-0.24,-1.69,21.60,35.25,22.35,27.0
2026/04/13 15:04:29.22,IMU,23.93,-73.24,-1017.09,0.34,0.08,-1.13,20.85,34.80,21.60,26.9
2026/04/13 15:04:29.32,IMU,6.35,-74.22,-1018.07,0.00,2.73,3.47,21.45,35.10,22.50,27.2
2026/04/13 15:04:29.42,IMU,-0.49,-69.34,-1001.46,-2.29,0.88,1.66,21.45,34.35,21.75,26.9
2026/04/13 15:04:29.52,IMU,13.18,-82.03,-1013.18,0.18,-0.01,-0.14,21.45,35.40,21.00,27.0
2026/04/13 15:04:29.62,IMU,3.91,-66.89,-1030.27,-0.84,-0.08,-0.51,22.05,35.55,22.35,26.7
2026/04/13 15:04:29.72,IMU,29.30,-75.20,-1026.37,0.31,0.48,-0.90,22.05,36.00,22.35,26.8
2026/04/13 15:04:29.82,IMU,24.90,-69.82,-1001.95,-0.02,1.53,-0.72,22.80,35.55,23.40,27.0
2026/04/13 15:04:29.92,IMU,12.70,-63.96,-1027.83,-0.76,-0.93,0.45,20.70,35.10,21.45,27.0
2026/04/13 15:04:30.02,IMU,29.79,-66.89,-996.09,2.27,1.27,-1.69,19.50,34.80,21.60,27.0
2026/04/13 15:04:30.12,IMU,22.46,-65.43,-995.12,2.42,0.81,0.69,21.75,33.90,20.70,26.7
2026/04/13 15:04:30.22,IMU,13.18,-72.27,-1002.44,0.87,-1.60,0.76,21.30,35.25,21.90,26.9
2026/04/13 15:04:30.32,IMU,30.27,-80.08,-1011.23,0.67,3.34,-0.81,22.05,34.80,22.35,26.9
2026/04/13 15:04:30.42,IMU,44.43,-80.08,-1016.60,0.09,-0.90,3.42,21.75,35.10,21.75,27.1
2026/04/13 15:04:30.52,IMU,26.37,-59.08,-1026.37,-1.00,0.84,2.53,20.40,34.35,23.25,26.8
2026/04/13 15:04:30.62,IMU,28.32,-73.73,-1014.65,0.87,1.02,1.12,20.85,34.05,21.90,27.1
2026/04/13 15:04:30.72,IMU,43.95,-82.52,-1038.09,1.60,1.63,0.36,21.45,34.65,21.45,26.8
2026/04/13 15:04:30.82,IMU,26.86,-65.92,-1009.77,0.05,0.62,0.39,20.55,33.30,22.35,26.9
2026/04/13 15:04:30.92,IMU,25.39,-76.17,-1029.79,2.18,2.08,0.31,21.30,34.50,21.90,27.1
2026/04/13 15:04:31.02,IMU,34.18,-63.96,-1000.00,-0.07,0.31,2.11,20.55,34.50,22.35,26.7
2026/04/13 15:04:31.12,IMU,39.06,-72.27,-1007.32,0.39,-1.98,2.50,20.85,36.00,23.10,26.8
2026/04/13 15:04:31.23,IMU,26.37,-63.48,-1017.09,1.27,2.30,0.09,20.55,35.25,21.60,26.8
2026/04/13 15:04:31.33,IMU,34.18,-65.92,-1030.27,0.06,0.18,4.21,19.80,33.30,21.90,27.3
2026/04/13 15:04:31.43,IMU,36.62,-66.89,-1008.79,0.27,-2.44,1.98,20.70,35.10,21.45,26.8
2026/04/13 15:04:31.53,IMU,33.69,-61.04,-1016.60,-0.05,1.47,0.26,20.55,34.80,22.35,27.0
2026/04/13 15:04:31.63,IMU,21.97,-54.20,-1031.74,1.41,0.08,1.70,20.85,37.20,21.15,26.8
2026/04/13 15:04:31.73,IMU,24.90,-58.59,-1014.65,0.10,-0.08,3.28,21.15,35.85,22.05,27.0
2026/04/13 15:04:31.83,IMU,45.90,-82.52,-989.75,0.93,0.05,2.80,20.40,34.65,21.00,26.9
2026/04/13 15:04:31.93,IMU,12.70,-70.31,-1005.37,0.34,0.34,-1.85,22.05,34.50,21.60,26.8
2026/04/13 15:04:32.03,IMU,31.25,-65.92,-1010.74,-1.55,-0.80,-3.34,19.80,34.50,22.35,27.1
2026/04/13 15:04:32.13,IMU,27.83,-64.94,-1016.60,-0.18,-0.71,-3.32,19.50,34.50,22.65,27.0
2026/04/13 15:04:32.23,IMU,13.67,-58.59,-1058.59,0.24,-0.49,0.73,20.85,33.30,23.10,26.9
2026/04/13 15:04:32.33,IMU,75.68,-86.91,-972.66,4.21,-15.20,-1.34,21.60,34.80,21.15,26.9
2026/04/13 15:04:32.43,IMU,-93.75,-69.34,-1066.41,17.30,-65.45,-1.15,24.45,33.60,21.45,27.2
2026/04/13 15:04:32.53,IMU,-206.05,-66.41,-1076.66,-13.33,-65.44,1.24,28.50,31.95,23.55,26.8
2026/04/13 15:04:32.63,IMU,-330.57,-39.55,-934.57,-30.24,-145.31,4.80,40.95,33.90,22.80,27.0
2026/04/13 15:04:32.73,IMU,-719.73,51.76,-552.25,-57.41,-250.14,-3.89,62.10,37.50,29.10,26.8
2026/04/13 15:04:32.83,IMU,-931.15,37.11,-396.00,-3.34,-171.85,33.38,86.55,37.65,46.35,26.8
2026/04/13 15:04:32.93,IMU,-796.39,-22.95,-108.89,-4.90,-82.07,-14.76,94.65,40.05,58.95,27.0
2026/04/13 15:04:33.03,IMU,-1023.93,40.53,38.57,8.99,-13.81,-48.44,95.40,38.85,65.10,26.8
2026/04/13 15:04:33.13,IMU,-1110.84,-21.00,66.41,7.34,-8.11,-20.56,95.85,36.90,67.65,27.1
2026/04/13 15:04:33.23,IMU,-1078.61,-36.62,19.04,1.68,-1.26,-1.52,94.20,36.75,69.90,26.6
2026/04/13 15:04:33.33,IMU,-1028.32,-61.04,6.35,0.77,11.88,0.93,94.20,35.55,68.55,27.2
2026/04/13 15:04:33.43,IMU,-984.38,-61.52,-3.42,2.76,20.51,-0.58,93.00,36.45,68.85,27.0
2026/04/13 15:04:33.53,IMU,-958.50,-57.13,-41.02,-2.34,16.19,4.11,92.40,36.15,69.75,26.8
2026/04/13 15:04:33.63,IMU,-1011.23,-33.20,-42.97,5.22,-0.75,3.29,92.25,37.50,70.35,26.9
2026/04/13 15:04:33.73,IMU,-977.05,-43.46,-37.60,7.14,-3.63,1.05,94.20,36.75,68.55,27.0
2026/04/13 15:04:33.83,IMU,-996.09,-44.43,104.98,12.22,-18.94,-6.60,93.00,37.50,66.75,26.7
2026/04/13 15:04:33.93,IMU,-1012.21,-38.57,-68.36,2.29,12.20,4.60,92.85,37.65,67.20,26.9
2026/04/13 15:04:34.03,IMU,-1071.78,-6.84,27.83,-8.26,-30.60,-11.86,92.85,37.35,67.65,27.0
2026/04/13 15:04:34.13,IMU,-988.77,-50.78,12.21,-2.18,0.97,-6.83,94.35,37.35,68.70,26.7
2026/04/13 15:04:34.23,IMU,-1007.81,-37.11,-25.88,-2.53,6.84,-1.62,92.40,35.85,70.20,27.0
2026/04/13 15:04:34.34,IMU,-1008.79,-60.06,-37.11,-0.29,4.15,-2.36,93.15,38.40,69.00,26.7
2026/04/13 15:04:34.44,IMU,-988.28,-73.73,-38.57,2.37,2.65,1.61,92.70,37.50,68.55,27.0
2026/04/13 15:04:34.54,IMU,-1030.27,-52.25,-10.74,0.53,6.20,-0.60,91.95,33.30,72.45,26.9
2026/04/13 15:04:34.64,IMU,-1000.98,-63.96,-6.84,1.09,1.31,1.09,93.90,38.10,69.45,26.5
2026/04/13 15:04:34.74,IMU,-1000.49,-45.41,-36.62,-1.60,0.06,-1.85,92.10,38.10,69.00,27.0
2026/04/13 15:04:34.84,IMU,-1009.28,-49.32,-68.36,-1.21,-0.97,-1.18,92.40,36.15,69.00,26.9
2026/04/13 15:04:34.95,IMU,-983.89,-49.80,-47.85,-2.52,-1.02,-1.08,93.00,36.00,68.55,27.0
2026/04/13 15:04:35.05,IMU,-1016.60,-44.92,-4.88,-0.35,3.98,-1.48,94.20,36.45,68.10,27.2
2026/04/13 15:04:35.15,IMU,-997.56,-60.55,-35.64,0.04,3.63,-2.65,93.45,37.20,68.85,26.8
2026/04/13 15:04:35.25,IMU,-1025.39,-62.99,-54.69,-0.30,2.66,-0.66,91.35,38.10,69.45,27.1
2026/04/13 15:04:35.35,IMU,-1021.00,-69.82,-52.73,-0.31,3.43,0.29,93.15,36.90,67.95,26.9
2026/04/13 15:04:35.45,IMU,-998.05,-69.34,-63.96,-0.19,-0.35,1.61,92.40,37.35,66.90,26.9
2026/04/13 15:04:35.55,IMU,-1015.63,-47.85,-68.85,-0.20,-0.66,2.41,93.60,36.60,66.45,27.1
2026/04/13 15:04:35.65,IMU,-978.52,-64.94,-52.25,-0.66,1.11,1.79,94.20,37.50,67.80,27.0
2026/04/13 15:04:35.75,IMU,-1014.65,-57.62,-47.36,-0.50,1.08,-0.88,92.85,35.40,67.95,26.9
2026/04/13 15:04:35.85,IMU,-1015.14,-61.52,-58.59,0.35,1.84,-2.40,92.25,37.50,68.10,27.0
2026/04/13 15:04:35.95,IMU,-1027.34,-51.76,-53.22,1.42,2.35,-1.66,92.85,36.90,67.95,27.0
2026/04/13 15:04:36.05,IMU,-1019.53,-67.87,-80.08,0.21,0.70,-2.36,93.15,36.15,67.20,27.0
2026/04/13 15:04:36.15,IMU,-1022.95,-57.62,-56.15,-1.47,1.22,1.58,92.85,36.15,65.85,27.1
2026/04/13 15:04:36.25,IMU,-972.66,-72.75,-99.12,-0.02,-3.34,3.65,93.45,35.55,66.75,27.0
2026/04/13 15:04:36.35,IMU,-977.54,-53.71,-63.96,-0.09,1.68,0.95,94.35,36.15,67.20,26.8
2026/04/13 15:04:36.45,IMU,-996.58,-52.25,-54.20,0.85,-0.99,-0.21,92.85,36.15,67.20,27.3
2026/04/13 15:04:36.55,IMU,-1037.60,-68.85,-56.64,-0.71,1.71,-1.80,92.25,36.00,66.75,27.1
2026/04/13 15:04:36.65,IMU,-1033.69,-55.66,-44.43,1.89,2.04,1.69,93.00,36.45,67.80,26.8
2026/04/13 15:04:36.75,IMU,-1008.30,-61.52,-65.92,-0.56,0.63,0.89,93.00,37.20,68.55,27.0
2026/04/13 15:04:36.85,IMU,-993.16,-61.04,-62.01,0.19,1.66,-0.78,93.00,35.25,66.30,27.1
2026/04/13 15:04:36.95,IMU,-961.91,-78.12,-68.36,1.44,1.47,0.76,93.90,36.15,64.65,26.8
2026/04/13 15:04:37.05,IMU,-968.75,-62.01,-80.08,-0.83,0.66,-3.41,92.70,35.55,67.05,27.1
2026/04/13 15:04:37.15,IMU,-1022.95,-53.71,-72.27,-0.52,-0.80,-1.36,94.50,35.25,66.75,26.7
2026/04/13 15:04:37.25,IMU,-1005.37,-66.89,-62.01,0.76,-0.91,4.57,93.60,36.15,67.20,26.9
2026/04/13 15:04:37.35,IMU,-1010.25,-70.31,-46.39,0.42,-1.95,-0.22,93.75,35.55,67.35,27.1
2026/04/13 15:04:37.45,IMU,-1003.42,-57.62,-81.05,1.34,-0.60,0.07,93.75,36.00,68.10,27.2
2026/04/13 15:04:37.55,IMU,-1014.16,-53.22,-64.94,-1.12,-1.61,-1.04,93.90,34.65,66.90,27.1
2026/04/13 15:04:37.65,IMU,-947.75,-81.54,-75.68,-0.60,0.54,0.40,92.85,34.35,66.45,26.8
2026/04/13 15:04:37.75,IMU,-1016.60,-49.32,-43.46,-2.16,-1.05,-4.98,94.35,34.35,67.95,27.0
2026/04/13 15:04:37.85,IMU,-1011.72,-69.34,-62.99,3.00,0.54,1.08,92.25,35.55,67.80,27.0
2026/04/13 15:04:37.95,IMU,-1017.09,-74.71,-60.06,1.86,-0.05,-2.08,94.50,35.25,69.60,27.1
2026/04/13 15:04:38.06,IMU,-1010.74,-76.66,-35.16,-0.21,-0.82,2.28,93.00,34.80,66.30,26.9
2026/04/13 15:04:38.16,IMU,-992.19,-83.50,-79.59,0.59,-1.21,-0.02,92.85,35.40,66.45,27.2
2026/04/13 15:04:38.26,IMU,-1012.21,-73.73,-66.89,0.56,-0.67,0.51,92.85,34.65,66.90,27.1
2026/04/13 15:04:38.36,IMU,-987.79,-83.98,-48.34,0.86,-0.46,-1.30,93.45,34.80,67.35,27.2
2026/04/13 15:04:38.46,IMU,-993.65,-89.36,-69.82,0.41,-4.34,1.50,93.75,35.55,67.80,27.0
2026/04/13 15:04:38.56,IMU,-1003.91,-88.38,-51.76,0.97,2.12,1.51,93.15,36.15,67.65,27.0
2026/04/13 15:04:38.66,IMU,-1014.16,-76.17,-55.18,-0.79,0.46,0.19,93.75,36.45,68.10,27.0
2026/04/13 15:04:38.76,IMU,-1006.84,-65.92,-67.87,2.55,-2.59,4.92,93.45,36.00,66.75,27.1
2026/04/13 15:04:38.86,IMU,-953.61,-79.59,-83.98,2.21,-0.93,-0.11,93.00,32.55,66.30,27.0
2026/04/13 15:04:38.96,IMU,-987.30,-56.64,-83.98,-0.44,-4.00,-1.50,93.60,34.35,66.15,27.0
2026/04/13 15:04:39.06,IMU,-1000.49,-71.78,-60.06,2.02,0.66,1.42,93.15,34.65,66.45,27.1
2026/04/13 15:04:39.16,IMU,-1000.49,-75.20,-58.59,0.60,-1.50,2.00,93.90,36.15,66.45,26.8
2026/04/13 15:04:39.26,IMU,-1041.50,-81.54,-45.90,0.89,-0.11,-1.03,92.70,34.05,68.10,27.0
2026/04/13 15:04:39.36,IMU,-1028.81,-59.08,-47.85,-2.78,-2.76,-0.60,92.25,36.00,67.05,27.2
2026/04/13 15:04:39.46,IMU,-1135.74,-23.44,136.72,-8.73,-66.63,10.89,91.95,33.30,67.80,26.9
2026/04/13 15:04:39.56,IMU,-942.38,-74.71,177.25,-26.12,-163.18,7.84,95.85,33.90,75.15,27.0
2026/04/13 15:04:39.66,IMU,-1011.23,-93.75,707.03,-73.33,-206.61,-41.97,94.80,29.10,89.40,27.2
2026/04/13 15:04:39.76,IMU,-675.29,-193.36,755.86,-26.98,-165.18,50.18,91.20,28.05,102.45,26.8
2026/04/13 15:04:39.86,IMU,-489.75,-171.88,803.71,-22.84,-131.47,34.90,86.25,30.90,112.65,26.8
2026/04/13 15:04:39.96,IMU,-347.17,-122.07,877.44,-14.63,-78.95,29.13,80.10,30.75,116.85,27.1
2026/04/13 15:04:40.06,IMU,-162.60,-188.96,925.78,-8.55,-51.49,32.34,75.15,31.20,122.40,27.0
2026/04/13 15:04:40.16,IMU,-183.11,-189.45,995.61,-2.63,-28.34,16.44,73.20,31.50,122.25,27.3
2026/04/13 15:04:40.26,IMU,-62.99,-169.92,1004.88,-6.27,-30.60,17.32,68.85,33.90,123.60,27.0
2026/04/13 15:04:40.36,IMU,-77.64,-198.24,1080.08,-1.60,-11.73,-3.70,68.40,30.75,123.30,27.2
2026/04/13 15:04:40.46,IMU,-59.57,-168.46,992.19,3.39,-19.01,12.58,68.70,33.00,124.05,27.1
2026/04/13 15:04:40.56,IMU,-33.69,-156.25,995.12,2.28,-14.98,14.11,67.95,32.55,124.80,27.1
2026/04/13 15:04:40.66,IMU,-23.93,-152.83,986.82,14.53,-10.95,15.10,67.95,34.05,125.10,27.1
2026/04/13 15:04:40.76,IMU,33.69,-95.70,915.53,16.95,9.92,15.26,67.80,37.35,124.95,26.7
2026/04/13 15:04:40.86,IMU,-4.39,-178.71,1031.25,-0.12,-22.83,40.14,68.85,37.65,125.70,26.9
2026/04/13 15:04:40.96,IMU,61.04,-165.04,1112.79,5.28,-9.98,33.24,68.25,39.60,126.45,27.0
2026/04/13 15:04:41.06,IMU,41.02,-56.15,1008.30,-4.79,-25.44,23.75,67.50,41.55,125.40,27.1
2026/04/13 15:04:41.17,IMU,-21.48,-14.16,1013.67,1.26,-20.13,16.63,67.65,43.20,125.10,26.6
2026/04/13 15:04:41.27,IMU,-14.16,17.58,902.34,12.45,-1.42,18.62,66.00,43.05,126.00,27.0
2026/04/13 15:04:41.37,IMU,-4.39,26.37,904.30,25.83,11.77,7.21,66.00,43.80,125.40,27.0
2026/04/13 15:04:41.47,IMU,-60.06,23.93,874.51,6.51,13.98,8.37,65.40,44.70,125.10,27.1
2026/04/13 15:04:41.57,IMU,57.13,-31.25,899.41,19.19,19.88,-4.25,65.40,42.45,125.85,26.8
2026/04/13 15:04:41.67,IMU,119.63,-68.36,1019.53,-1.09,8.50,9.82,63.90,42.90,128.10,27.0
2026/04/13 15:04:41.77,IMU,35.64,2.93,1081.54,10.26,2.93,1.64,66.60,46.95,125.85,27.0
2026/04/13 15:04:41.87,IMU,-33.69,44.43,927.25,10.05,1.79,-1.93,67.05,45.75,126.00,27.0
2026/04/13 15:04:41.97,IMU,57.13,-11.23,942.87,3.67,4.70,0.36,67.50,46.80,125.40,27.0
2026/04/13 15:04:42.07,IMU,96.68,-64.45,1000.00,-10.51,5.40,-0.18,66.75,45.30,124.65,27.0
2026/04/13 15:04:42.17,IMU,53.71,-46.88,1062.99,8.14,11.34,-3.60,67.80,45.30,124.65,27.1
2026/04/13 15:04:42.27,IMU,52.25,1.46,932.62,-4.99,-3.01,-1.30,70.05,46.50,122.85,26.8
2026/04/13 15:04:42.37,IMU,-34.18,-37.60,1043.95,-8.50,-4.02,1.37,67.80,44.55,124.65,27.3
2026/04/13 15:04:42.47,IMU,62.50,-56.15,1002.93,-10.37,-8.98,-0.63,67.50,44.10,124.65,27.1
2026/04/13 15:04:42.57,IMU,92.77,-54.20,995.61,7.16,-3.46,2.71,67.05,44.85,124.50,26.7
2026/04/13 15:04:42.67,IMU,11.23,-5.37,985.84,-0.73,0.51,-4.45,65.55,44.10,124.95,27.1
2026/04/13 15:04:42.77,IMU,49.80,-41.50,1016.11,-4.21,-4.17,-4.40,66.75,43.05,124.95,26.8
2026/04/13 15:04:42.87,IMU,75.20,-76.17,1018.07,-1.37,-0.28,0.74,68.55,42.60,125.70,27.1
2026/04/13 15:04:42.97,IMU,66.89,-32.71,983.89,2.55,-1.32,-0.98,67.05,44.10,124.20,27.2
2026/04/13 15:04:43.07,IMU,59.08,-50.78,1023.93,-4.15,0.36,3.64,66.15,43.20,123.75,26.8
2026/04/13 15:04:43.17,IMU,44.43,-44.43,989.75,-1.10,0.67,-0.53,66.60,43.95,123.75,27.3
2026/04/13 15:04:43.27,IMU,19.53,-26.86,1005.37,2.21,-1.69,-1.13,66.60,43.20,123.30,26.6
2026/04/13 15:04:43.37,IMU,32.23,-39.55,990.72,-3.07,-2.13,0.05,67.95,43.65,126.30,26.9
2026/04/13 15:04:43.47,IMU,53.22,-53.71,1001.46,-0.05,0.97,3.47,67.05,43.05,125.70,26.9
2026/04/13 15:04:43.57,IMU,44.92,-50.29,1014.16,-2.37,-1.44,-0.21,66.30,43.80,125.70,27.3
2026/04/13 15:04:43.67,IMU,86.43,-43.46,1001.95,0.44,-0.44,-3.11,66.60,42.90,125.55,27.1
2026/04/13 15:04:43.77,IMU,40.04,-55.66,966.80,-3.44,0.96,-0.13,68.85,44.55,126.75,27.2
2026/04/13 15:04:43.88,IMU,45.90,-89.84,1045.90,-0.98,3.09,0.90,66.90,42.90,124.05,26.9
2026/04/13 15:04:43.98,IMU,67.38,-59.08,990.72,1.40,1.25,-1.73,67.20,42.00,124.05,27.0
2026/04/13 15:04:44.08,IMU,41.02,-36.13,975.59,3.73,-1.47,1.11,66.75,42.30,125.40,27.0
2026/04/13 15:04:44.18,IMU,52.73,-68.85,1024.41,-0.50,-2.76,2.34,67.65,42.90,124.05,26.5
2026/04/13 15:04:44.28,IMU,52.73,-55.66,993.65,4.60,3.02,-0.60,67.05,42.60,126.75,27.0
2026/04/13 15:04:44.38,IMU,62.50,-49.80,961.91,-0.43,2.02,-0.70,67.20,44.70,124.50,27.0
2026/04/13 15:04:44.48,IMU,60.06,-44.43,1008.30,1.66,-2.00,-0.32,66.00,43.35,124.65,27.0
2026/04/13 15:04:44.58,IMU,39.55,-43.46,979.49,-3.48,-0.47,0.03,66.15,44.40,124.05,26.9
2026/04/13 15:04:44.68,IMU,41.50,-54.69,1019.53,0.33,0.68,-0.40,66.60,42.90,124.50,27.0
2026/04/13 15:04:44.78,IMU,58.11,-43.95,979.49,5.60,-0.47,-0.92,65.85,44.40,125.55,27.0
2026/04/13 15:04:44.88,IMU,46.39,-18.07,994.14,1.69,-0.76,1.47,67.80,43.80,124.95,27.1
2026/04/13 15:04:44.98,IMU,44.92,-25.88,1006.84,-2.98,0.00,2.65,66.15,43.65,123.30,27.0
2026/04/13 15:04:45.08,IMU,58.11,-48.83,992.68,2.50,1.94,1.85,66.90,43.95,124.05,26.9
2026/04/13 15:04:45.18,IMU,30.76,-35.64,982.42,0.19,2.63,0.19,66.90,43.65,124.50,27.1
2026/04/13 15:04:45.28,IMU,68.85,-38.09,971.19,3.04,1.51,1.79,68.70,44.40,123.30,26.9
2026/04/13 15:04:45.38,IMU,32.71,-46.88,1023.93,1.34,0.10,0.28,68.25,43.80,124.65,27.2
2026/04/13 15:04:45.48,IMU,31.74,-23.93,979.00,-0.82,1.09,-1.77,67.20,42.45,124.80,26.9
2026/04/13 15:04:45.58,IMU,36.62,-23.93,982.91,4.19,1.68,0.50,67.05,44.85,126.00,27.0
2026/04/13 15:04:45.68,IMU,39.55,-32.23,1003.91,-0.16,2.81,0.95,67.80,44.85,125.40,26.7
2026/04/13 15:04:45.78,IMU,44.43,-58.11,1011.72,-0.15,-1.83,3.73,66.90,44.40,124.80,27.1
2026/04/13 15:04:45.88,IMU,28.81,-11.23,968.75,2.75,-2.12,2.47,67.05,44.85,124.65,27.0
2026/04/13 15:04:45.98,IMU,46.88,-30.76,964.84,-1.67,3.11,0.60,68.55,44.85,125.40,26.8
2026/04/13 15:04:46.08,IMU,31.25,-42.48,1037.60,-4.88,0.13,1.41,67.95,44.40,124.50,27.0
2026/04/13 15:04:46.18,IMU,50.29,-45.41,1009.77,2.40,-1.68,-2.80,67.65,43.95,124.50,26.9
2026/04/13 15:04:46.28,IMU,22.46,-18.07,994.14,0.55,2.95,1.31,68.25,44.10,123.90,27.0
2026/04/13 15:04:46.38,IMU,21.48,-32.71,1002.44,-1.60,2.79,1.44,67.80,43.80,124.65,27.1
2026/04/13 15:04:46.48,IMU,22.46,-36.62,982.91,0.04,2.09,-1.37,68.40,43.95,122.25,27.0
2026/04/13 15:04:46.58,IMU,39.55,-29.79,994.14,2.56,0.02,-0.77,68.40,43.65,124.05,26.8
2026/04/13 15:04:46.68,IMU,28.81,-52.25,1014.65,-5.56,0.21,-0.13,66.90,43.65,124.50,27.0
2026/04/13 15:04:46.78,IMU,55.18,-41.99,997.07,-2.31,-3.02,1.09,68.40,43.95,124.50,27.1
2026/04/13 15:04:46.88,IMU,28.81,-39.55,973.63,3.69,3.80,-0.30,67.95,43.20,122.70,27.0
2026/04/13 15:04:46.98,IMU,35.16,-65.43,1005.86,-2.43,3.82,-0.05,68.25,43.80,124.20,27.2
2026/04/13 15:04:47.09,IMU,5.86,-17.09,1012.70,-3.11,-1.36,4.02,68.25,44.85,124.20,26.8
2026/04/13 15:04:47.19,IMU,-25.88,-110.35,1160.16,-9.38,-41.17,19.09,68.55,43.05,123.90,27.3
2026/04/13 15:04:47.29,IMU,268.55,-71.29,1292.48,-7.05,-117.56,-16.57,64.35,43.95,124.50,27.0
2026/04/13 15:04:47.39,IMU,428.22,-144.04,1125.98,-45.95,-172.06,26.46,54.90,43.05,126.75,27.0
2026/04/13 15:04:47.49,IMU,557.62,-236.33,1016.60,-8.17,-102.80,-18.84,40.95,39.60,126.75,26.8
2026/04/13 15:04:47.59,IMU,525.88,-58.11,627.93,10.22,-73.03,-2.89,31.20,42.00,126.30,27.1
2026/04/13 15:04:47.69,IMU,626.95,-150.39,582.03,-29.57,-74.66,48.18,22.80,40.50,124.80,26.9
2026/04/13 15:04:47.79,IMU,841.80,-192.38,500.98,-39.04,-100.21,24.03,12.75,34.05,120.90,26.9
2026/04/13 15:04:47.89,IMU,1062.99,-321.29,396.48,22.47,-184.74,-84.14,2.85,33.30,112.20,27.1
2026/04/13 15:04:47.99,IMU,992.68,-277.34,250.49,68.92,-113.39,-18.87,-7.65,41.70,102.00,26.9
2026/04/13 15:04:48.09,IMU,901.86,-212.40,14.16,-29.77,-89.82,-8.93,-13.20,45.90,93.00,27.1
2026/04/13 15:04:48.19,IMU,932.62,-115.23,-82.52,-31.67,3.95,-15.61,-16.80,45.15,88.65,27.2
2026/04/13 15:04:48.29,IMU,859.86,126.46,-74.22,-9.10,22.18,13.85,-15.90,46.05,88.50,27.0
2026/04/13 15:04:48.39,IMU,1040.04,-100.59,-321.78,-5.47,48.50,33.57,-14.40,44.55,89.25,26.9
2026/04/13 15:04:48.49,IMU,1112.79,-116.70,-55.18,-20.95,-23.05,-33.49,-13.20,41.25,91.65,26.8
2026/04/13 15:04:48.59,IMU,803.71,74.71,0.49,1.17,-10.00,-33.95,-14.25,44.70,90.90,27.1
2026/04/13 15:04:48.69,IMU,853.03,-1.46,331.54,15.65,-2.04,-5.04,-14.40,46.80,89.55,27.0
2026/04/13 15:04:48.79,IMU,1145.02,57.13,-91.31,5.25,-9.37,21.79,-14.25,46.95,88.05,26.8
2026/04/13 15:04:48.89,IMU,1327.64,-125.98,-117.68,-2.87,-57.92,42.92,-12.30,46.50,87.45,26.9
2026/04/13 15:04:48.99,IMU,953.61,-21.00,-128.42,-2.86,1.04,-8.27,-11.70,44.70,86.55,27.0
2026/04/13 15:04:49.09,IMU,967.29,6.35,-64.94,0.31,9.33,-8.89,-15.00,44.70,87.30,26.8
2026/04/13 15:04:49.19,IMU,928.71,-6.84,-147.46,-2.31,7.82,8.02,-13.20,46.65,87.60,27.3
2026/04/13 15:04:49.29,IMU,1013.67,-0.49,-108.89,0.54,12.67,4.59,-12.45,45.15,88.65,27.0
2026/04/13 15:04:49.39,IMU,1014.65,-41.50,-118.16,-3.27,-7.33,4.31,-13.20,44.40,90.15,26.9
2026/04/13 15:04:49.49,IMU,1025.39,-43.95,-146.97,-4.77,-1.47,6.26,-12.75,43.65,88.35,27.3
2026/04/13 15:04:49.59,IMU,983.89,-3.91,-117.68,-4.33,0.82,0.58,-11.70,43.20,90.90,27.0
2026/04/13 15:04:49.69,IMU,961.43,-47.36,-160.64,-1.42,7.62,0.63,-12.45,42.90,89.10,27.2
2026/04/13 15:04:49.79,IMU,968.26,-28.81,-105.47,-1.30,9.65,0.01,-13.95,42.45,93.00,26.7
2026/04/13 15:04:49.89,IMU,998.05,-44.43,-80.57,-0.49,3.49,2.11,-11.70,41.70,90.15,26.9
2026/04/13 15:04:49.99,IMU,1009.77,-37.11,-100.10,-0.97,5.85,-0.31,-12.00,42.00,89.85,27.0
2026/04/13 15:04:50.09,IMU,975.59,-31.25,-62.01,-2.43,3.64,2.66,-11.40,42.90,90.15,27.2
2026/04/13 15:04:50.19,IMU,953.61,-43.46,-94.73,-3.34,4.89,1.71,-13.20,42.45,90.45,27.0
2026/04/13 15:04:50.30,IMU,963.38,-19.04,-71.78,1.08,4.17,1.69,-10.05,41.85,92.10,27.2
2026/04/13 15:04:50.40,IMU,1021.48,-54.20,-80.08,2.89,6.37,-1.63,-10.35,43.35,91.05,27.0
2026/04/13 15:04:50.50,IMU,1003.91,-34.67,-45.90,0.11,0.89,-0.06,-10.65,42.90,91.95,27.0
2026/04/13 15:04:50.60,IMU,984.38,-46.39,-78.12,-1.79,3.11,-0.69,-10.95,43.95,92.70,27.1
2026/04/13 15:04:50.70,IMU,987.79,-6.35,-67.87,-2.58,-2.63,-0.85,-10.65,43.95,92.40,26.9
2026/04/13 15:04:50.80,IMU,1002.44,-38.57,-78.12,-2.21,-2.75,1.85,-14.70,39.75,97.05,26.8
2026/04/13 15:04:50.90,IMU,973.63,-16.60,-59.08,-0.10,2.01,-2.24,-10.35,43.80,91.80,26.8
2026/04/13 15:04:51.00,IMU,999.02,-35.16,-59.57,1.46,-5.20,4.63,-10.65,42.00,92.40,27.2
2026/04/13 15:04:51.10,IMU,993.16,-44.43,-118.16,0.74,1.44,1.11,-9.75,41.55,92.55,27.1
2026/04/13 15:04:51.20,IMU,962.89,-18.55,-75.68,-0.76,3.31,-1.97,-10.35,43.35,91.35,26.8
2026/04/13 15:04:51.30,IMU,999.51,-55.66,-78.12,1.80,-2.87,-0.97,-12.00,42.45,92.70,27.2
2026/04/13 15:04:51.40,IMU,980.47,-37.11,-70.31,-1.51,2.05,-0.90,-11.40,42.45,92.70,27.0
2026/04/13 15:04:51.50,IMU,948.24,-15.14,-78.12,-0.53,3.08,-0.89,-12.00,43.95,91.65,26.9
2026/04/13 15:04:51.60,IMU,985.35,-28.32,-79.10,-1.42,1.72,2.67,-10.80,41.85,91.80,27.0
2026/04/13 15:04:51.70,IMU,966.31,-36.13,-90.33,-0.55,-0.18,2.44,-11.55,43.35,91.80,27.1
2026/04/13 15:04:51.81,IMU,981.93,-39.06,-85.94,0.67,3.91,1.34,-15.15,39.15,97.20,27.0
2026/04/13 15:04:51.91,IMU,1011.23,-47.36,-78.12,0.92,-0.69,2.02,-11.55,41.85,91.05,26.9
2026/04/13 15:04:52.01,IMU,974.12,-39.06,-68.85,0.53,1.61,-2.69,-11.40,41.70,91.65,27.0
2026/04/13 15:04:52.11,IMU,983.40,-22.95,-67.87,-0.53,0.36,-1.20,-12.60,42.60,91.35,27.2
2026/04/13 15:04:52.21,IMU,976.56,-31.25,-65.43,-0.51,4.18,-2.16,-11.40,42.45,90.15,27.2
2026/04/13 15:04:52.31,IMU,970.21,-21.00,-84.96,0.82,3.08,-1.92,-10.80,42.30,91.80,26.9
2026/04/13 15:04:52.41,IMU,980.96,-43.95,-68.85,0.40,2.02,2.11,-10.20,42.00,92.40,26.9
2026/04/13 15:04:52.51,IMU,967.29,-37.60,-85.45,0.56,-2.24,3.74,-11.55,41.55,91.35,26.7
2026/04/13 15:04:52.61,IMU,1029.79,-69.34,-73.73,0.97,0.95,1.97,-10.80,42.60,92.55,26.9
2026/04/13 15:04:52.71,IMU,989.75,-43.95,-59.57,0.08,-2.63,-2.76,-10.20,40.50,92.40,27.2
2026/04/13 15:04:52.81,IMU,975.59,-25.39,-64.45,0.60,-1.40,2.52,-10.80,41.55,91.35,27.1
2026/04/13 15:04:52.91,IMU,989.75,-56.64,-69.34,0.76,1.36,0.38,-11.10,42.30,90.75,26.9
2026/04/13 15:04:53.01,IMU,989.75,-39.55,-62.99,0.46,0.26,-0.42,-10.80,41.55,91.35,27.1
2026/04/13 15:04:53.11,IMU,992.68,-41.50,-60.55,0.45,0.70,-0.14,-11.70,42.00,91.95,26.9
2026/04/13 15:04:53.21,IMU,966.31,-40.53,-77.15,1.07,4.01,-4.30,-11.10,41.55,92.55,27.1
2026/04/13 15:04:53.31,IMU,958.98,-27.34,-43.46,-0.47,6.76,-3.65,-10.95,42.00,91.20,27.2
2026/04/13 15:04:53.41,IMU,979.98,-25.88,-70.80,3.14,-6.81,5.46,-10.20,42.00,91.95,27.0
2026/04/13 15:04:53.51,IMU,1006.35,-53.71,-70.80,-2.42,1.02,-7.03,-10.80,42.30,92.10,27.1
2026/04/13 15:04:53.61,IMU,965.82,-12.21,-39.06,-0.98,-0.84,1.10,-11.70,41.25,92.70,27.1
2026/04/13 15:04:53.71,IMU,986.33,-32.71,-45.90,-0.60,0.28,-0.15,-10.35,42.30,92.10,27.1
2026/04/13 15:04:53.81,IMU,992.19,-22.95,-48.34,1.08,-0.36,0.22,-11.85,41.85,91.35,27.1
2026/04/13 15:04:53.91,IMU,996.09,-44.92,-85.45,2.50,1.31,4.05,-10.95,41.25,93.75,27.3
2026/04/13 15:04:54.01,IMU,1004.39,-47.36,-70.80,-1.65,3.34,-5.95,-9.00,41.10,91.35,26.8
2026/04/13 15:04:54.11,IMU,976.56,-10.25,-22.46,0.39,-0.68,3.34,-9.90,42.00,91.95,27.0
2026/04/13 15:04:54.21,IMU,974.61,-18.55,-57.13,1.00,2.59,1.10,-10.05,41.10,92.55,27.4
2026/04/13 15:04:54.31,IMU,978.03,-25.39,-76.66,0.43,0.52,0.27,-10.95,42.45,92.70,27.1
2026/04/13 15:04:54.41,IMU,993.65,-37.11,-56.64,-1.35,-2.78,1.25,-10.80,43.35,93.60,27.0
2026/04/13 15:04:54.52,IMU,980.47,-21.00,-54.69,0.37,-0.20,2.65,-10.95,42.90,91.20,26.8
2026/04/13 15:04:54.62,IMU,976.56,-17.58,-66.41,0.40,-1.93,2.20,-11.10,42.60,92.85,27.2
2026/04/13 15:04:54.72,IMU,972.17,-21.48,-44.92,0.37,0.83,-0.24,-9.30,42.30,91.80,27.1
2026/04/13 15:04:54.82,IMU,1036.13,-53.22,-53.71,-0.48,-0.90,1.02,-11.10,40.80,91.80,27.0
2026/04/13 15:04:54.92,IMU,975.59,-11.23,-42.97,-1.41,-4.02,0.87,-10.35,43.05,93.30,27.0
2026/04/13 15:04:55.02,IMU,991.70,-30.27,-60.55,2.22,2.99,0.18,-11.55,42.60,92.55,27.0
2026/04/13 15:04:55.12,IMU,990.72,-39.06,-68.85,1.11,0.66,0.26,-9.90,41.70,91.95,27.2
2026/04/13 15:04:55.22,IMU,1004.39,-40.53,-50.29,1.10,-1.12,-0.28,-11.40,42.00,93.75,27.0
2026/04/13 15:04:55.32,IMU,986.82,-40.53,-60.55,-0.88,-2.02,2.56,-11.85,42.60,92.85,27.1
2026/04/13 15:04:55.42,IMU,967.77,-10.74,-61.04,0.53,0.68,-0.84,-11.40,42.90,91.20,27.0
2026/04/13 15:04:55.52,IMU,994.14,-53.22,-70.80,2.00,0.46,1.16,-11.10,41.55,92.85,27.0
2026/04/13 15:04:55.62,IMU,987.30,-30.76,-47.85,0.95,-0.11,1.51,-10.20,42.45,92.40,26.8
2026/04/13 15:04:55.72,IMU,960.94,-26.86,-51.27,0.47,1.14,-1.16,-10.05,42.60,92.10,27.3
2026/04/13 15:04:55.82,IMU,987.79,-42.48,-66.89,1.15,2.24,-0.95,-10.80,40.35,92.85,26.9
2026/04/13 15:04:55.92,IMU,1000.49,-36.62,-55.18,-1.81,2.06,0.47,-11.40,41.70,93.45,26.8
2026/04/13 15:04:56.02,IMU,979.00,-26.86,-62.50,0.02,-0.69,3.06,-10.65,42.90,92.70,26.8
2026/04/13 15:04:56.12,IMU,968.26,-56.64,-77.64,0.27,-1.58,1.67,-11.55,42.60,91.05,27.1
2026/04/13 15:04:56.22,IMU,848.63,98.63,-103.03,-9.03,67.13,11.55,-9.90,41.25,95.25,27.2
2026/04/13 15:04:56.32,IMU,988.28,-64.94,125.98,61.78,-6.20,131.47,-8.40,37.50,95.55,27.1
2026/04/13 15:04:56.42,IMU,526.86,-587.89,106.45,49.63,23.56,244.24,-4.65,23.40,94.50,27.1
2026/04/13 15:04:56.52,IMU,867.19,-825.20,26.37,25.92,-27.19,165.53,5.85,7.50,92.70,27.0
2026/04/13 15:04:56.62,IMU,504.39,-945.80,-455.08,8.15,-91.81,152.89,18.75,-1.80,96.30,27.2
2026/04/13 15:04:56.72,IMU,-117.19,-725.59,423.83,44.99,28.34,110.31,27.90,-6.45,97.80,27.3
2026/04/13 15:04:56.82,IMU,117.19,-934.57,-44.43,20.92,-13.28,46.02,43.05,-7.20,102.45,27.3
2026/04/13 15:04:56.92,IMU,-250.49,-1018.55,-136.23,-5.46,-8.42,-25.66,41.85,-5.25,104.55,26.9
2026/04/13 15:04:57.02,IMU,380.37,-1541.02,110.35,-32.47,6.17,-23.40,41.85,-4.50,100.95,27.1
2026/04/13 15:04:57.12,IMU,75.20,-1105.47,93.26,6.39,12.98,-25.58,41.25,-4.65,100.05,26.8
2026/04/13 15:04:57.22,IMU,112.79,-1009.28,39.55,-2.27,-22.28,1.57,40.80,-3.00,98.85,27.0
2026/04/13 15:04:57.32,IMU,46.88,-981.93,-21.48,2.77,-9.45,1.18,39.60,-3.00,100.20,27.0
2026/04/13 15:04:57.42,IMU,45.90,-1000.49,56.64,4.04,5.79,16.14,39.00,-4.05,100.65,27.2
2026/04/13 15:04:57.53,IMU,65.43,-1039.06,4.88,1.48,0.98,13.24,40.20,-5.10,99.30,27.0
2026/04/13 15:04:57.63,IMU,29.30,-1029.30,54.69,-5.59,2.40,4.21,41.10,-3.30,101.40,26.9
2026/04/13 15:04:57.73,IMU,-22.95,-997.07,0.49,1.65,9.73,-1.68,42.30,-3.00,100.95,27.1
2026/04/13 15:04:57.83,IMU,-46.88,-1025.39,30.27,-5.66,5.49,-2.82,42.45,-3.15,100.50,26.8
2026/04/13 15:04:57.93,IMU,30.27,-1058.59,-10.25,0.44,9.60,-2.55,41.25,-3.90,100.05,27.1
2026/04/13 15:04:58.03,IMU,25.88,-1014.65,50.78,-2.82,4.19,-0.34,42.60,-3.75,100.65,27.0
2026/04/13 15:04:58.13,IMU,7.32,-979.98,33.20,-1.53,3.11,-0.51,41.70,-4.65,100.80,27.1
2026/04/13 15:04:58.23,IMU,35.16,-997.56,32.23,-1.32,8.76,5.09,43.05,-4.05,102.00,27.0
2026/04/13 15:04:58.33,IMU,7.81,-1038.09,1.46,-2.20,-0.45,4.02,43.20,-4.35,101.55,27.0
2026/04/13 15:04:58.43,IMU,-5.37,-1039.55,-3.42,-3.62,-2.42,9.44,43.05,-3.75,99.60,27.2
2026/04/13 15:04:58.53,IMU,-18.55,-1028.81,42.97,-2.10,0.63,3.28,44.40,-4.80,99.90,27.0
2026/04/13 15:04:58.63,IMU,7.32,-995.61,10.74,-4.45,-4.34,4.67,44.70,-5.10,99.30,27.1
2026/04/13 15:04:58.73,IMU,-34.18,-1008.30,-8.30,-1.75,2.73,-0.24,43.65,-4.50,99.60,26.9
2026/04/13 15:04:58.83,IMU,-41.50,-998.54,-20.51,-0.44,0.97,0.50,44.25,-5.10,99.30,27.0
2026/04/13 15:04:58.93,IMU,-18.55,-1004.39,-2.93,-1.45,4.85,-0.66,41.25,-7.65,102.90,27.2
2026/04/13 15:04:59.03,IMU,-26.86,-1027.83,-19.53,-1.85,3.73,1.24,44.40,-5.25,99.15,27.3
2026/04/13 15:04:59.13,IMU,0.49,-1029.30,-19.04,-0.69,0.68,-0.72,45.15,-4.50,99.15,26.8
2026/04/13 15:04:59.23,IMU,4.88,-1010.25,-6.84,0.44,2.36,0.38,44.10,-4.80,98.40,27.2
2026/04/13 15:04:59.33,IMU,5.86,-1018.55,-29.79,-3.40,-3.27,3.11,45.00,-6.15,98.70,27.0
2026/04/13 15:04:59.43,IMU,-10.74,-996.58,-63.48,-1.25,-4.86,4.31,44.40,-5.55,99.60,27.3
2026/04/13 15:04:59.53,IMU,-33.69,-1019.53,-9.77,-3.08,-0.59,1.99,45.15,-6.00,97.80,27.1
2026/04/13 15:04:59.63,IMU,-21.48,-1025.39,-26.37,-1.05,3.08,2.40,44.10,-6.00,97.80,27.1
2026/04/13 15:04:59.73,IMU,-47.85,-993.16,-79.10,-2.74,-2.93,0.97,44.25,-5.10,97.95,27.2
2026/04/13 15:04:59.83,IMU,-59.08,-1008.30,-40.04,-3.16,2.10,2.52,43.95,-6.15,98.25,26.7
2026/04/13 15:04:59.93,IMU,-20.51,-1028.81,-47.85,-1.12,-1.27,1.36,40.80,-7.50,101.70,27.0
2026/04/13 15:05:00.03,IMU,-14.16,-1004.88,-100.10,-1.55,-2.67,1.05,44.70,-5.40,94.65,27.0
2026/04/13 15:05:00.13,IMU,-29.30,-1013.67,-57.13,-1.34,-3.53,0.61,45.00,-6.60,97.50,27.3
2026/04/13 15:05:00.23,IMU,-23.93,-1007.81,-30.76,1.55,-0.66,1.50,43.65,-6.00,96.30,26.9
2026/04/13 15:05:00.33,IMU,-33.20,-1002.44,-78.61,-0.22,1.09,-1.56,45.00,-6.15,96.90,27.1
2026/04/13 15:05:00.43,IMU,-22.95,-1014.16,-50.29,0.62,0.08,-0.03,44.10,-6.00,96.60,27.1
2026/04/13 15:05:00.53,IMU,-42.48,-1023.44,-66.41,-3.09,-0.60,-0.63,43.65,-5.55,94.50,27.4
2026/04/13 15:05:00.63,IMU,-42.48,-1021.48,-28.32,-1.76,-1.82,0.49,45.15,-4.50,96.60,27.3
2026/04/13 15:05:00.74,IMU,-27.34,-1025.39,-64.45,-1.55,-1.31,1.00,43.50,-6.90,95.70,26.8
2026/04/13 15:05:00.84,IMU,-50.78,-1000.00,-66.41,-0.14,-0.73,0.92,45.15,-6.45,96.60,27.1
2026/04/13 15:05:00.94,IMU,-48.83,-1000.49,-73.73,0.84,0.38,-2.05,44.40,-5.55,95.25,27.1
2026/04/13 15:05:01.04,IMU,-31.74,-1026.86,-67.87,-1.44,1.80,2.31,45.00,-6.60,96.45,27.1
2026/04/13 15:05:01.14,IMU,-48.83,-1022.46,-83.01,-1.11,2.24,2.29,45.60,-6.45,97.05,27.1
2026/04/13 15:05:01.24,IMU,-70.31,-1015.63,-80.08,-1.44,-1.10,4.19,45.60,-6.75,95.55,27.0
2026/04/13 15:05:01.34,IMU,-60.06,-1015.14,-71.78,-1.35,0.31,1.19,45.30,-6.90,96.45,27.3
2026/04/13 15:05:01.44,IMU,-54.20,-1035.64,-85.45,0.99,1.60,1.79,45.30,-6.60,94.35,27.3
2026/04/13 15:05:01.55,IMU,-43.46,-995.61,-82.52,-1.16,0.06,0.24,45.00,-7.65,95.40,27.1
2026/04/13 15:05:01.65,IMU,-55.18,-1003.91,-97.17,-2.14,-0.96,0.09,45.30,-5.85,95.70,27.3
2026/04/13 15:05:01.75,IMU,-45.41,-1021.97,-31.25,-0.10,4.72,3.28,45.60,-8.70,94.80,27.1
2026/04/13 15:05:01.85,IMU,-40.53,-1034.67,-117.19,0.07,0.69,-0.81,44.25,-5.40,96.15,26.8
2026/04/13 15:05:01.95,IMU,-48.83,-1000.98,-86.43,0.27,-0.89,-0.46,45.30,-6.15,95.10,27.3
2026/04/13 15:05:02.05,IMU,-61.04,-973.14,-49.80,2.86,2.55,-1.17,45.75,-7.35,94.65,27.3
2026/04/13 15:05:02.15,IMU,-78.61,-1018.07,-59.08,-0.59,-0.71,2.11,45.30,-6.15,95.70,27.2
2026/04/13 15:05:02.25,IMU,-66.89,-1024.90,-82.52,-1.16,-2.04,-1.74,46.05,-6.15,96.45,27.1
2026/04/13 15:05:02.35,IMU,-81.05,-1029.30,-106.45,0.16,-1.00,1.93,45.60,-7.50,96.30,27.2
2026/04/13 15:05:02.45,IMU,-53.71,-993.16,-82.52,-1.27,0.63,0.79,44.40,-7.20,94.80,27.2
2026/04/13 15:05:02.55,IMU,-52.25,-997.07,-65.92,-0.24,0.76,2.26,46.35,-6.45,95.55,27.1
2026/04/13 15:05:02.65,IMU,-42.48,-1006.35,-86.43,-1.34,-1.32,1.23,45.75,-8.10,94.35,27.1
2026/04/13 15:05:02.75,IMU,-62.50,-1007.32,-109.37,-2.06,-0.78,0.80,45.30,-7.65,96.15,27.3
2026/04/13 15:05:02.85,IMU,-62.01,-1002.93,-85.94,-2.42,-0.14,-0.77,44.85,-6.45,95.25,27.1
2026/04/13 15:05:02.95,IMU,-50.78,-996.58,-109.37,1.02,0.55,5.14,44.85,-7.20,94.80,26.9
2026/04/13 15:05:03.05,IMU,-55.66,-1007.81,-62.50,0.15,-1.50,-0.67,45.15,-6.75,95.25,27.3
2026/04/13 15:05:03.15,IMU,-52.25,-1031.74,-77.15,-1.60,1.15,1.50,44.25,-6.60,95.40,27.1
2026/04/13 15:05:03.25,IMU,-69.34,-1012.21,-61.52,-2.15,-1.81,0.40,46.50,-6.90,95.70,27.3
2026/04/13 15:05:03.35,IMU,-74.22,-997.07,-62.99,-1.91,0.31,2.18,46.35,-7.95,95.25,26.9
2026/04/13 15:05:03.45,IMU,-55.66,-1014.65,-103.03,-0.66,0.80,-1.79,46.05,-6.90,94.35,27.0
2026/04/13 15:05:03.55,IMU,-56.15,-990.23,-87.40,-2.76,1.38,-0.36,47.10,-6.75,96.30,27.1
2026/04/13 15:05:03.65,IMU,-71.29,-1001.46,-66.89,1.79,0.85,1.70,45.60,-8.25,95.25,27.3
2026/04/13 15:05:03.75,IMU,-77.64,-1026.86,-104.49,1.01,1.28,-0.05,48.15,-6.75,95.25,27.3
2026/04/13 15:05:03.85,IMU,-53.22,-1019.53,-82.03,1.07,1.01,-2.47,46.05,-8.10,95.10,27.3
2026/04/13 15:05:03.95,IMU,-69.34,-1009.28,-85.45,3.13,1.81,2.82,46.35,-8.25,96.00,27.1
2026/04/13 15:05:04.05,IMU,-50.78,-1018.07,-77.64,0.71,1.03,-0.04,45.60,-6.75,94.80,27.2
2026/04/13 15:05:04.15,IMU,-80.57,-1003.42,-68.36,0.04,0.55,-0.50,46.05,-7.35,95.40,27.3
2026/04/13 15:05:04.25,IMU,-60.55,-988.77,-74.71,0.82,4.06,-2.82,44.70,-5.85,95.70,27.3
2026/04/13 15:05:04.35,IMU,-81.54,-1001.46,-102.05,1.89,1.38,2.52,46.65,-7.20,97.35,27.2
2026/04/13 15:05:04.45,IMU,-38.57,-1017.09,-81.54,0.72,2.30,-1.18,46.05,-5.10,95.40,26.9
2026/04/13 15:05:04.56,IMU,-55.18,-985.35,-84.47,0.98,1.27,1.45,44.70,-6.15,95.70,27.3
2026/04/13 15:05:04.66,IMU,-52.73,-1026.86,-70.80,0.39,-0.43,-0.21,45.75,-6.90,95.40,27.1
2026/04/13 15:05:04.76,IMU,-58.59,-1030.27,-81.05,0.07,0.29,-0.08,45.75,-7.35,94.65,27.3
2026/04/13 15:05:04.86,IMU,-47.85,-1016.60,-70.80,-0.43,2.25,-1.82,45.15,-6.00,95.55,27.2
2026/04/13 15:05:04.96,IMU,-59.08,-990.72,-54.69,0.61,1.29,4.03,46.65,-4.80,97.05,27.2
2026/04/13 15:05:05.06,IMU,-63.48,-1060.06,-66.41,2.49,7.63,1.11,46.05,-5.10,96.90,26.8
2026/04/13 15:05:05.16,IMU,13.18,-1178.71,-54.20,37.13,51.31,-37.77,46.50,-5.85,96.15,27.5
2026/04/13 15:05:05.26,IMU,87.89,-1191.41,588.38,194.00,132.31,-75.92,42.00,-5.40,102.90,27.3
2026/04/13 15:05:05.36,IMU,238.28,-1025.88,342.77,250.13,99.21,-139.95,47.40,8.25,117.60,27.1
2026/04/13 15:05:05.46,IMU,-297.36,-458.50,440.43,250.13,162.69,-93.02,53.40,39.60,130.05,27.2
2026/04/13 15:05:05.56,IMU,-39.06,88.38,528.32,250.13,51.81,-91.98,64.80,70.05,122.10,26.8
2026/04/13 15:05:05.66,IMU,-153.81,676.76,848.14,234.77,4.45,-81.97,70.65,86.10,106.80,27.1
2026/04/13 15:05:05.76,IMU,-380.37,1034.18,767.58,138.55,-21.44,-13.50,76.80,90.60,93.00,26.9
2026/04/13 15:05:05.86,IMU,-756.84,1244.14,513.67,24.27,-25.21,15.47,77.40,92.70,86.40,27.4
2026/04/13 15:05:05.96,IMU,221.68,507.32,443.85,31.05,-46.08,11.48,69.60,98.10,82.20,27.2
2026/04/13 15:05:06.06,IMU,-491.21,1022.46,409.67,-0.76,-33.37,84.40,70.65,99.45,83.25,27.3
2026/04/13 15:05:06.16,IMU,89.84,854.00,421.88,57.62,8.41,4.23,62.25,104.10,80.55,26.7
2026/04/13 15:05:06.26,IMU,-225.59,961.43,514.16,69.34,41.44,-23.02,64.35,103.65,72.45,27.5
2026/04/13 15:05:06.36,IMU,-188.48,1083.98,114.26,20.97,19.94,16.32,66.00,104.55,65.85,27.1
2026/04/13 15:05:06.46,IMU,-27.83,998.05,19.53,50.26,8.11,13.71,61.35,105.15,62.40,26.9
2026/04/13 15:05:06.56,IMU,-93.26,998.05,-17.09,27.92,28.82,9.61,61.50,105.60,57.75,27.3
2026/04/13 15:05:06.66,IMU,-87.89,959.47,511.23,-17.89,18.70,-10.37,59.70,106.05,57.15,27.1
2026/04/13 15:05:06.76,IMU,7.32,985.35,252.44,-24.19,28.62,-30.65,62.70,105.60,59.25,27.2
2026/04/13 15:05:06.86,IMU,-372.07,1061.52,107.42,-18.89,51.50,-30.56,67.65,106.20,56.55,27.1
2026/04/13 15:05:06.96,IMU,215.82,931.64,-14.16,31.07,55.07,90.21,62.25,108.00,55.65,27.1
2026/04/13 15:05:07.06,IMU,-134.77,882.32,186.04,32.43,55.13,54.20,52.50,107.70,56.25,27.0
2026/04/13 15:05:07.16,IMU,175.29,1019.53,-107.91,12.73,36.60,-1.17,49.65,106.20,50.40,27.3
2026/04/13 15:05:07.26,IMU,112.30,1085.45,-46.39,-10.56,23.02,-34.65,50.40,105.90,48.60,27.2
2026/04/13 15:05:07.36,IMU,-10.25,1030.76,-15.63,9.36,-1.81,-11.54,53.40,104.55,49.20,27.1
2026/04/13 15:05:07.46,IMU,21.97,925.78,-25.88,6.89,10.46,1.10,55.05,104.40,48.00,27.1
2026/04/13 15:05:07.56,IMU,-7.81,947.27,-40.53,2.76,15.01,2.25,52.95,103.65,49.05,26.8
2026/04/13 15:05:07.67,IMU,-35.64,1014.65,-71.78,-6.27,8.16,-0.16,54.45,102.45,49.35,27.1
2026/04/13 15:05:07.77,IMU,8.79,1071.29,-46.39,-10.53,17.62,-4.24,53.25,101.70,49.35,26.9
2026/04/13 15:05:07.87,IMU,-29.79,967.77,-5.37,-9.68,12.21,-6.32,53.10,101.85,49.95,27.2
2026/04/13 15:05:07.97,IMU,-9.77,985.84,-14.65,-1.07,12.33,9.69,52.80,102.30,49.95,27.0
2026/04/13 15:05:08.07,IMU,-37.11,1002.44,-11.23,2.52,4.61,-0.02,49.05,101.85,52.80,27.0
2026/04/13 15:05:08.17,IMU,1965.33,1999.94,1647.46,-1.40,-33.04,34.84,51.30,103.05,48.90,27.3
2026/04/13 15:05:08.27,IMU,40.04,1094.73,-8.79,-3.70,9.89,-3.21,49.95,99.45,51.15,26.9
2026/04/13 15:05:08.37,IMU,288.57,997.07,-110.35,-5.29,-10.65,-4.63,52.05,103.80,50.70,27.1
2026/04/13 15:05:08.47,IMU,44.92,968.75,-29.79,-8.80,0.12,2.20,49.95,102.00,51.90,27.3
2026/04/13 15:05:08.57,IMU,0.49,992.68,25.88,-2.89,-0.01,0.21,52.20,103.20,52.65,27.2
2026/04/13 15:05:08.67,IMU,-8.30,979.98,-9.28,4.86,-0.81,-1.85,51.45,103.20,51.90,27.1
2026/04/13 15:05:08.77,IMU,-16.11,989.26,10.25,-2.92,1.04,1.90,51.45,101.70,51.15,27.1
2026/04/13 15:05:08.87,IMU,12.21,974.61,-0.49,-4.93,-2.75,-3.17,51.30,101.10,51.30,27.0
2026/04/13 15:05:08.97,IMU,-10.25,986.82,-18.55,0.44,-0.18,-2.58,50.70,103.20,50.85,27.1
2026/04/13 15:05:09.07,IMU,9.28,984.86,11.23,-4.10,1.15,4.27,49.20,98.70,54.45,27.1
2026/04/13 15:05:09.17,IMU,-16.60,1006.35,30.76,-3.30,1.03,2.11,51.45,102.45,51.60,27.3
2026/04/13 15:05:09.27,IMU,-2.93,997.56,33.69,-1.40,-1.78,0.53,52.35,103.80,52.80,27.1
2026/04/13 15:05:09.37,IMU,-12.21,993.65,6.35,5.53,1.06,-1.26,51.60,103.05,51.75,27.0
2026/04/13 15:05:09.47,IMU,-16.60,982.42,14.16,4.74,-0.31,1.56,50.70,102.45,52.65,27.2
2026/04/13 15:05:09.57,IMU,-3.91,986.82,-1.95,2.67,0.00,1.78,53.10,102.30,51.00,27.0
2026/04/13 15:05:09.67,IMU,-8.30,979.98,-15.14,-1.11,1.89,-1.45,51.75,102.75,51.15,27.3
2026/04/13 15:05:09.77,IMU,-17.09,988.77,4.39,3.48,0.92,-1.63,53.25,103.20,51.15,27.0
2026/04/13 15:05:09.87,IMU,-3.91,994.63,11.72,0.11,-0.87,2.63,53.85,101.55,50.70,27.2
2026/04/13 15:05:09.97,IMU,-13.67,979.49,-19.04,6.83,1.21,-0.44,52.20,101.70,50.85,27.3
2026/04/13 15:05:10.08,IMU,-5.37,975.10,-17.58,5.30,-0.44,2.04,49.95,97.50,54.00,27.2
2026/04/13 15:05:10.18,IMU,-9.28,999.02,-51.76,2.08,-0.13,1.18,51.45,101.70,49.05,27.0
2026/04/13 15:05:10.28,IMU,-12.21,985.84,-38.09,-2.95,2.44,-0.71,52.20,99.75,48.00,27.1
2026/04/13 15:05:10.38,IMU,-6.84,986.33,-12.21,-4.92,-0.77,-0.11,52.20,100.50,51.15,27.3
2026/04/13 15:05:10.48,IMU,-11.23,985.84,6.84,-1.74,-0.45,0.08,51.75,102.75,50.85,27.0
2026/04/13 15:05:10.58,IMU,6.84,984.38,-3.91,2.08,0.85,-1.47,51.30,102.30,48.90,27.0
2026/04/13 15:05:10.68,IMU,-11.72,996.58,-22.46,-1.10,0.02,-0.73,51.00,102.45,49.35,27.1
2026/04/13 15:05:10.78,IMU,-7.32,989.26,-8.30,-2.47,0.76,-1.83,51.75,102.45,51.15,27.2
2026/04/13 15:05:10.88,IMU,-15.63,987.79,21.48,-1.76,0.24,-1.47,51.60,102.60,51.30,26.9
2026/04/13 15:05:10.98,IMU,-5.37,982.91,7.32,-1.29,-0.03,1.50,51.30,102.60,51.75,27.1
2026/04/13 15:05:11.08,IMU,-2.44,988.77,3.91,2.93,-0.98,-0.52,52.35,101.55,52.05,27.2
2026/04/13 15:05:11.18,IMU,-18.55,985.84,-6.35,1.07,0.30,1.55,50.85,102.30,52.05,27.2
2026/04/13 15:05:11.28,IMU,-9.77,985.84,3.91,1.82,1.45,-0.69,52.20,103.20,50.10,27.2
2026/04/13 15:05:11.38,IMU,-9.28,989.26,-14.16,2.16,0.08,-0.58,52.95,100.50,51.15,27.2
2026/04/13 15:05:11.48,IMU,-19.53,982.91,-11.72,-1.07,0.78,1.40,52.35,100.80,49.95,27.3
2026/04/13 15:05:11.58,IMU,-15.63,988.28,-4.88,-1.55,0.52,-1.74,52.80,102.30,51.00,27.5
2026/04/13 15:05:11.69,IMU,-0.49,984.38,-7.32,-3.38,0.43,1.91,52.05,101.85,51.30,27.1
2026/04/13 15:05:11.79,IMU,-7.81,1001.95,7.81,-0.70,0.14,0.87,51.75,101.70,51.15,27.2
2026/04/13 15:05:11.89,IMU,-4.88,991.70,5.86,-0.63,-0.66,-0.30,51.75,102.45,52.95,27.3
2026/04/13 15:05:11.99,IMU,-2.44,981.93,10.74,-0.22,-0.41,0.05,52.05,103.80,52.50,27.5
2026/04/13 15:05:12.09,IMU,-3.42,990.23,-3.91,-0.95,-1.86,4.17,52.05,103.80,51.00,27.0
2026/04/13 15:05:12.19,IMU,-8.79,977.05,18.07,-1.04,1.24,-0.98,52.80,102.30,52.05,27.3
2026/04/13 15:05:12.29,IMU,-2.93,1006.35,16.60,1.25,1.02,-0.73,52.35,101.55,53.10,27.2
2026/04/13 15:05:12.39,IMU,-5.37,986.82,-5.37,0.68,-0.19,3.19,52.50,103.20,51.15,27.3
2026/04/13 15:05:12.49,IMU,0.98,980.47,3.91,0.09,1.52,0.54,52.05,102.30,50.70,26.8
2026/04/13 15:05:12.59,IMU,-3.42,989.75,-2.44,-0.32,0.55,-2.13,50.70,103.20,50.40,27.1
2026/04/13 15:05:12.69,IMU,-0.98,990.23,5.37,-2.32,-0.98,0.61,51.30,103.05,51.75,27.0
2026/04/13 15:05:12.79,IMU,-8.30,1000.98,2.93,1.88,0.52,2.01,51.75,101.25,50.85,27.1
2026/04/13 15:05:12.89,IMU,-13.67,985.84,-25.39,-0.89,1.47,-1.56,51.75,101.70,53.40,27.5
2026/04/13 15:05:12.99,IMU,6.35,979.49,15.63,-1.60,-0.03,0.31,51.30,103.05,53.55,27.1
2026/04/13 15:05:13.09,IMU,-10.74,984.86,15.14,1.91,-0.75,-1.36,52.20,103.65,52.20,27.1
2026/04/13 15:05:13.19,IMU,-0.49,986.82,13.18,-0.60,-0.04,0.29,50.85,102.60,53.85,27.3
2026/04/13 15:05:13.29,IMU,7.81,983.40,6.84,1.63,-0.37,3.08,51.00,102.00,54.00,27.1
2026/04/13 15:05:13.39,IMU,-14.16,988.28,23.93,1.76,-0.20,0.98,52.95,103.20,51.60,27.0
2026/04/13 15:05:13.49,IMU,-8.79,979.49,14.16,1.44,-1.10,0.52,52.05,103.05,53.10,27.3
2026/04/13 15:05:13.59,IMU,-23.93,993.16,17.09,-1.10,0.66,-0.08,51.30,102.60,52.50,27.1
2026/04/13 15:05:13.69,IMU,-16.11,992.68,17.58,-0.72,0.57,-3.22,51.75,101.70,51.60,27.3
2026/04/13 15:05:13.79,IMU,6.35,992.19,6.35,0.92,1.12,-2.87,51.00,103.20,52.65,27.2
2026/04/13 15:05:13.89,IMU,-14.65,1000.00,30.27,1.66,0.29,-1.74,51.30,102.30,52.80,27.2
2026/04/13 15:05:13.99,IMU,-0.49,994.14,19.53,1.18,0.02,-1.11,50.85,103.05,51.30,27.3
2026/04/13 15:05:14.09,IMU,-0.49,980.96,8.79,1.69,1.44,1.79,50.70,101.70,51.60,27.3
2026/04/13 15:05:14.19,IMU,-21.00,978.03,6.84,0.34,-0.43,0.96,51.00,103.20,52.95,27.2
2026/04/13 15:05:14.29,IMU,4.39,980.47,11.72,-0.66,-1.79,-1.53,52.80,102.60,52.05,27.3
2026/04/13 15:05:14.39,IMU,-0.98,999.02,12.21,0.46,1.19,1.47,51.00,103.20,54.00,27.3
2026/04/13 15:05:14.49,IMU,9.77,992.19,-24.41,-6.70,2.17,1.22,52.05,102.30,52.05,27.2
2026/04/13 15:05:14.59,IMU,76.17,895.02,357.42,13.39,51.40,-14.52,50.55,103.35,53.55,27.1
2026/04/13 15:05:14.69,IMU,138.18,719.24,-187.01,130.02,133.52,-143.85,50.70,98.70,45.45,26.9
2026/04/13 15:05:14.80,IMU,-489.75,590.33,-397.95,161.98,139.56,-160.55,55.65,81.75,30.45,27.1
2026/04/13 15:05:14.90,IMU,-368.65,456.05,-583.01,114.61,84.18,-101.60,49.05,61.65,22.05,27.3
2026/04/13 15:05:15.00,IMU,-507.81,585.45,-1000.00,46.37,45.01,-35.27,43.20,49.05,22.05,27.1
2026/04/13 15:05:15.10,IMU,-259.28,312.01,-1018.07,141.12,52.66,-46.93,38.70,36.60,21.75,27.1
2026/04/13 15:05:15.20,IMU,-250.00,180.66,-1070.31,28.18,37.61,-48.47,30.90,25.80,26.70,27.3
2026/04/13 15:05:15.30,IMU,-158.20,85.94,-1004.39,-13.67,33.80,-22.46,26.10,23.85,27.75,27.0
2026/04/13 15:05:15.40,IMU,-94.24,142.58,-1141.60,-102.24,8.03,11.95,18.00,25.35,27.75,27.1
2026/04/13 15:05:15.50,IMU,-41.02,133.79,-941.89,6.01,18.03,-12.98,13.65,27.90,28.95,27.3
2026/04/13 15:05:15.60,IMU,-10.25,111.33,-751.95,7.50,30.97,42.95,13.65,28.95,31.50,27.1
2026/04/13 15:05:15.70,IMU,-152.83,-1.46,-1172.85,73.53,60.15,6.98,15.00,24.60,32.10,27.2
2026/04/13 15:05:15.80,IMU,-21.00,-40.04,-873.05,1.64,-36.06,-18.99,8.40,20.85,34.95,26.9
2026/04/13 15:05:15.90,IMU,-62.50,-20.51,-1096.19,-0.83,1.76,3.27,14.70,22.35,32.70,27.2
2026/04/13 15:05:16.00,IMU,-2.93,-27.83,-987.79,-0.32,-0.10,1.40,13.50,22.35,31.65,27.3
2026/04/13 15:05:16.10,IMU,-46.39,-14.65,-1010.25,0.36,-0.04,2.04,13.95,22.35,32.70,27.2
2026/04/13 15:05:16.20,IMU,-38.57,-16.60,-1022.46,0.23,-0.56,0.02,13.95,22.35,33.45,27.1
2026/04/13 15:05:16.30,IMU,-33.69,-14.65,-1010.25,0.01,1.42,0.53,14.85,22.20,33.30,27.3
2026/04/13 15:05:16.40,IMU,-24.90,-10.74,-1015.14,0.16,-0.13,-1.49,15.15,21.00,31.20,27.0
2026/04/13 15:05:16.50,IMU,-42.97,-17.58,-1032.23,-0.46,1.06,-0.37,15.45,21.90,32.70,27.3
2026/04/13 15:05:16.60,IMU,-38.57,-1.95,-1025.39,0.21,-1.45,0.77,13.65,20.55,33.00,27.1
2026/04/13 15:05:16.70,IMU,-44.92,-7.81,-1010.25,0.18,-1.11,-0.39,15.75,22.35,32.40,27.3
2026/04/13 15:05:16.80,IMU,-38.09,-7.32,-1011.23,0.22,1.49,-0.11,14.85,21.75,33.30,27.2
2026/04/13 15:05:16.90,IMU,-49.80,-10.74,-1021.48,-0.05,0.13,-2.31,13.50,22.65,32.40,27.2
2026/04/13 15:05:17.00,IMU,-37.11,-9.28,-1014.65,1.24,0.11,-1.57,12.75,21.15,33.90,27.3
2026/04/13 15:05:17.10,IMU,-44.92,-14.16,-1012.70,-1.28,0.34,-0.95,15.15,20.55,33.30,27.2
2026/04/13 15:05:17.20,IMU,-27.34,-5.86,-1025.39,0.36,-0.63,0.75,13.05,19.50,35.55,27.3
2026/04/13 15:05:17.30,IMU,-47.85,-15.63,-1011.72,0.05,0.29,-2.49,14.25,21.90,32.70,27.1
2026/04/13 15:05:17.40,IMU,-34.67,-20.51,-1016.11,-0.82,0.85,-0.76,15.00,22.35,32.40,27.2
2026/04/13 15:05:17.50,IMU,-44.92,-14.65,-1011.72,-0.40,-1.79,-1.23,15.75,22.35,32.40,27.3
2026/04/13 15:05:17.61,IMU,-26.37,9.77,-1022.46,1.76,0.48,-0.64,17.10,21.45,32.25,27.3
2026/04/13 15:05:17.71,IMU,-28.81,-10.25,-999.02,0.35,1.13,-2.61,18.75,23.40,33.45,27.5
2026/04/13 15:05:17.81,IMU,-38.09,-18.07,-1006.35,0.29,1.63,-0.02,19.95,23.25,33.30,27.4
2026/04/13 15:05:17.91,IMU,-30.27,-6.35,-1015.63,1.49,-0.07,0.58,20.70,22.95,32.70,27.2
2026/04/13 15:05:18.01,IMU,-37.60,-20.02,-1020.02,-1.98,0.98,-1.75,20.10,22.65,33.15,26.9
2026/04/13 15:05:18.11,IMU,-34.18,-18.07,-1025.39,-0.79,0.24,0.11,18.45,23.25,32.55,27.4
2026/04/13 15:05:18.21,IMU,-43.46,-12.21,-1008.30,1.14,-1.16,-1.98,16.65,22.95,37.65,27.2
2026/04/13 15:05:18.31,IMU,-43.46,-11.72,-1014.16,0.05,0.77,1.78,20.70,24.45,34.05,27.3
2026/04/13 15:05:18.41,IMU,-35.64,-25.39,-1021.97,-0.96,-1.21,1.00,19.95,22.95,33.30,27.3
2026/04/13 15:05:18.51,IMU,-39.55,-12.70,-1009.77,-1.71,-1.17,1.57,20.55,23.85,32.70,27.1
2026/04/13 15:05:18.61,IMU,-41.99,-16.11,-1016.60,1.41,0.73,-1.28,21.60,25.05,33.15,27.4
2026/04/13 15:05:18.71,IMU,-37.60,-1.46,-1000.00,-0.27,0.39,-0.37,20.55,24.60,31.65,27.3
2026/04/13 15:05:18.81,IMU,-35.16,-20.02,-1009.28,1.68,0.68,3.32,19.80,23.10,31.35,27.3
2026/04/13 15:05:18.91,IMU,-36.62,-14.16,-1016.11,2.41,-0.32,0.90,19.80,23.85,32.10,27.2
2026/04/13 15:05:19.01,IMU,-33.69,-6.35,-1014.16,1.00,2.01,-0.31,20.55,23.40,34.20,27.3
2026/04/13 15:05:19.11,IMU,-27.83,-24.41,-1021.48,-0.08,1.19,1.33,20.85,23.85,33.90,27.3
2026/04/13 15:05:19.21,IMU,-38.57,-10.25,-1005.37,0.04,-0.40,1.60,20.40,22.50,33.00,27.3
2026/04/13 15:05:19.31,IMU,-37.60,-18.07,-1006.84,0.18,0.01,1.19,20.55,23.40,33.15,27.3
2026/04/13 15:05:19.41,IMU,-39.06,-12.21,-1004.88,-0.60,0.82,-0.07,19.65,21.45,32.55,27.2
2026/04/13 15:05:19.51,IMU,-37.11,-12.70,-1019.04,0.64,-0.51,1.06,21.15,22.50,32.55,27.1
2026/04/13 15:05:19.61,IMU,-38.09,-24.90,-1008.30,0.71,0.21,-2.13,20.10,23.40,32.10,26.9
2026/04/13 15:05:19.71,IMU,-32.71,-0.49,-1003.91,-0.62,0.25,-3.15,19.65,22.95,33.00,27.2
2026/04/13 15:05:19.81,IMU,-31.25,-10.25,-1008.79,1.82,-1.60,1.95,19.80,22.35,34.20,27.5
2026/04/13 15:05:19.91,IMU,-40.04,-18.55,-1021.48,0.47,0.93,0.24,21.15,22.95,33.30,27.1
2026/04/13 15:05:20.02,IMU,-38.09,-14.65,-1013.18,-1.53,-0.55,-0.31,19.80,23.40,33.15,27.3
2026/04/13 15:05:20.12,IMU,-39.06,-32.71,-1016.60,1.20,0.46,-0.08,20.70,24.45,33.60,27.5
2026/04/13 15:05:20.22,IMU,-40.04,-14.16,-1019.53,0.06,3.00,0.66,20.55,23.10,30.90,27.3
2026/04/13 15:05:20.32,IMU,-30.76,-12.21,-1026.37,-0.01,0.64,-0.16,20.85,23.10,32.70,27.2
2026/04/13 15:05:20.42,IMU,-48.83,-19.53,-1010.25,0.78,2.20,0.07,21.15,23.25,32.55,27.3
2026/04/13 15:05:20.52,IMU,-42.48,-20.02,-1002.44,-0.51,-0.95,-0.81,20.40,24.00,31.50,27.1
2026/04/13 15:05:20.62,IMU,-44.92,-20.02,-1021.97,0.23,-0.24,0.22,20.85,23.40,33.45,27.3
2026/04/13 15:05:20.72,IMU,-38.09,-14.16,-1019.53,-0.40,0.07,0.34,19.80,23.10,33.15,27.3
2026/04/13 15:05:20.82,IMU,-36.62,-13.18,-1017.09,-0.23,0.85,-1.33,19.80,22.65,32.10,27.1
2026/04/13 15:05:20.92,IMU,-44.92,-18.55,-1014.65,1.70,-0.89,1.64,19.95,22.95,33.00,27.2
2026/04/13 15:05:21.02,IMU,-40.53,-11.72,-1016.11,-0.34,0.92,-1.55,20.85,22.35,32.10,27.5
2026/04/13 15:05:21.12,IMU,-42.97,2.44,-1006.84,-0.39,0.96,1.85,20.70,22.95,32.55,27.3
2026/04/13 15:05:21.22,IMU,-30.27,-27.83,-1019.04,0.18,1.02,0.84,20.70,23.70,32.55,27.3
2026/04/13 15:05:21.32,IMU,-38.57,-15.63,-1010.74,0.97,1.89,-1.08,21.15,24.45,32.55,27.3
2026/04/13 15:05:21.42,IMU,-41.99,-3.42,-1023.93,-0.32,0.13,1.09,20.85,24.30,33.90,27.5
2026/04/13 15:05:21.52,IMU,-31.25,-12.21,-994.14,0.78,-0.70,-2.28,20.10,23.85,32.10,27.4
2026/04/13 15:05:21.62,IMU,-42.48,-12.21,-1024.90,-2.47,1.08,-2.08,19.95,22.95,33.00,26.9
2026/04/13 15:05:21.72,IMU,-39.06,-11.72,-1016.11,0.08,-0.07,0.72,21.15,23.25,33.00,27.2
2026/04/13 15:05:21.82,IMU,-35.64,-17.09,-1026.37,0.73,-0.63,1.86,20.40,24.00,32.25,27.0
2026/04/13 15:05:21.92,IMU,-45.90,-23.44,-1017.09,0.00,-1.05,-0.56,21.15,21.75,33.00,27.4
2026/04/13 15:05:22.02,IMU,-42.97,-18.07,-1023.93,0.63,1.35,-1.33,20.55,23.10,32.40,27.1
2026/04/13 15:05:22.12,IMU,-28.32,-26.86,-1016.11,0.34,-0.17,0.05,20.10,22.65,33.15,27.4
2026/04/13 15:05:22.22,IMU,-51.27,-7.81,-1014.16,-0.30,1.79,-1.34,19.65,23.70,31.80,27.5
