Timestamp,Sensor,AccX,AccY,AccZ,GyrX,GyrY,GyrZ,MagX,MagY,MagZ,Temp
2026/04/15 14:29:14.00,IMU,274.41,43.46,-1095.21,-8.02,50.86,4.27,-55.65,6.60,-41.25,26.3
2026/04/15 14:29:14.10,IMU,215.82,-62.50,-847.66,15.49,48.26,-33.08,-56.85,5.40,-39.75,26.3
2026/04/15 14:29:14.20,IMU,412.11,13.18,-941.89,-22.89,22.34,-14.34,-57.45,7.35,-38.70,26.3
2026/04/15 14:29:14.30,IMU,436.52,52.73,-1068.85,4.61,-39.92,-0.31,-56.10,10.05,-37.95,26.3
2026/04/15 14:29:14.40,IMU,279.30,48.34,-1061.52,15.98,-35.29,19.47,-53.70,7.20,-41.40,26.3
2026/04/15 14:29:14.50,IMU,153.32,-6.84,-1068.85,23.72,21.34,-14.58,-52.35,5.85,-43.35,26.3
2026/04/15 14:29:14.60,IMU,221.19,54.20,-920.41,-10.37,-13.81,17.23,-52.05,4.35,-42.75,26.4
2026/04/15 14:29:14.70,IMU,278.32,-8.30,-975.10,15.55,24.37,2.67,-51.30,3.15,-42.75,26.1
2026/04/15 14:29:14.80,IMU,229.00,-45.41,-930.18,10.71,15.98,9.78,-49.20,2.55,-43.95,26.3
2026/04/15 14:29:14.90,IMU,358.89,28.32,-979.49,25.66,-16.96,-4.94,-45.15,-1.80,-42.90,26.3
2026/04/15 14:29:15.00,IMU,102.05,-139.65,-877.44,-0.34,-23.17,-17.56,-36.15,-5.85,-41.25,26.3
2026/04/15 14:29:15.10,IMU,177.73,-83.01,-1178.22,-0.87,-43.21,7.53,-41.25,-2.70,-39.45,26.1
2026/04/15 14:29:15.20,IMU,276.86,-107.91,-921.39,-10.77,-26.84,-5.15,-35.40,-3.90,-39.45,26.6
2026/04/15 14:29:15.30,IMU,148.44,-106.93,-969.24,-11.18,-4.85,-10.54,-39.90,-1.20,-41.25,26.6
2026/04/15 14:29:15.40,IMU,73.73,-122.56,-724.12,-0.47,-108.02,-15.22,-39.00,-0.30,-42.45,26.3
2026/04/15 14:29:15.51,IMU,-104.00,-102.54,-1017.58,7.12,-0.56,26.90,-37.20,-0.45,-42.30,26.3
2026/04/15 14:29:15.61,IMU,78.12,-40.04,-964.36,13.50,-34.34,49.23,-26.10,-5.25,-31.65,26.3
2026/04/15 14:29:15.71,IMU,-437.01,-215.33,-1093.26,-5.56,17.78,13.11,-18.75,-16.20,7.50,26.2
2026/04/15 14:29:15.81,IMU,43.46,-93.26,-1009.28,-17.63,-12.81,16.58,-28.65,-13.20,-0.30,26.4
2026/04/15 14:29:15.91,IMU,-356.93,-174.32,-1253.91,54.76,-39.94,61.03,-53.10,-11.85,-10.95,26.3
2026/04/15 14:29:16.01,IMU,-47.36,-85.94,-1125.98,8.82,9.69,117.68,-70.20,-18.60,-12.90,26.3
2026/04/15 14:29:16.11,IMU,-171.88,-181.15,-1274.41,-7.74,73.48,3.98,-86.55,-19.80,-14.25,26.3
2026/04/15 14:29:16.21,IMU,-105.96,65.92,-1285.16,-31.64,-44.01,-1.58,-74.10,-14.55,-15.60,26.5
2026/04/15 14:29:16.31,IMU,-64.94,73.73,-1028.81,-3.21,7.56,2.82,-66.75,-8.85,-28.95,26.3
2026/04/15 14:29:16.41,IMU,-138.67,-26.86,-1036.62,8.35,-24.85,3.20,-67.95,-11.25,-33.15,26.3
2026/04/15 14:29:16.51,IMU,-111.82,46.88,-786.13,26.73,-50.58,12.99,-69.15,-11.25,-40.05,26.4
2026/04/15 14:29:16.61,IMU,-237.79,10.25,-841.31,27.09,-9.63,3.24,-70.35,-13.05,-42.75,26.1
2026/04/15 14:29:16.71,IMU,-295.41,-29.30,-936.52,-17.11,-12.90,9.01,-75.90,-15.30,-44.85,26.3
2026/04/15 14:29:16.81,IMU,-237.30,-84.47,-943.85,18.83,5.14,7.03,-72.75,-14.40,-45.75,26.5
2026/04/15 14:29:16.91,IMU,-233.89,-39.55,-950.68,-2.75,-14.87,22.21,-74.85,-15.75,-47.40,26.6
2026/04/15 14:29:17.01,IMU,-280.76,-37.11,-1000.00,12.08,12.75,11.57,-75.15,-15.75,-47.70,26.3
2026/04/15 14:29:17.11,IMU,-259.28,13.18,-982.91,4.51,13.79,15.31,-77.25,-15.45,-47.25,26.5
2026/04/15 14:29:17.21,IMU,-113.28,114.75,-379.39,-20.37,-13.06,9.44,-75.00,-16.20,-46.50,26.3
2026/04/15 14:29:17.31,IMU,-280.76,-16.60,-1004.39,-18.07,3.35,5.30,-74.10,-12.30,-47.70,26.3
2026/04/15 14:29:17.41,IMU,-274.90,38.09,-969.24,-14.87,13.99,-10.60,-76.35,-12.60,-45.90,26.4
2026/04/15 14:29:17.51,IMU,-224.61,60.55,-823.73,-19.98,-4.37,-21.07,-76.95,-10.35,-47.40,26.3
2026/04/15 14:29:17.61,IMU,-253.42,-0.49,-668.95,-16.82,-23.31,-38.08,-74.85,-10.35,-48.45,26.3
2026/04/15 14:29:17.71,IMU,-153.32,1.46,-800.29,-2.01,21.02,-34.08,-71.55,-7.65,-48.45,26.3
2026/04/15 14:29:17.81,IMU,-186.04,80.08,-1111.33,-19.25,2.63,-6.04,-73.20,-5.55,-49.35,26.3
2026/04/15 14:29:17.91,IMU,-250.00,139.65,-1098.14,-17.73,16.90,11.21,-73.50,-6.45,-51.15,26.3
2026/04/15 14:29:18.01,IMU,-235.84,83.01,-1077.64,12.05,15.30,-7.50,-74.85,-4.35,-51.75,26.3
2026/04/15 14:29:18.11,IMU,-251.46,209.47,-941.41,-25.65,-1.98,7.68,-75.75,-5.25,-51.90,26.5
2026/04/15 14:29:18.21,IMU,-191.41,136.72,-989.26,-5.07,9.35,5.04,-75.00,-2.55,-52.20,26.2
2026/04/15 14:29:18.31,IMU,-253.42,139.65,-1093.26,1.60,3.85,-15.12,-68.85,-1.20,-49.95,26.3
2026/04/15 14:29:18.41,IMU,-169.43,159.18,-1008.79,16.16,-14.50,-27.50,-68.55,-1.65,-49.95,26.4
2026/04/15 14:29:18.51,IMU,-216.31,162.60,-981.93,14.02,23.73,-13.11,-68.55,-1.65,-51.00,26.2
2026/04/15 14:29:18.61,IMU,-170.90,130.86,-924.32,8.03,8.15,-2.49,-70.35,-3.60,-51.00,26.3
2026/04/15 14:29:18.72,IMU,-187.01,134.77,-985.35,5.42,12.69,-2.92,-70.80,-3.15,-49.50,26.2
2026/04/15 14:29:18.82,IMU,-177.25,132.81,-973.14,-0.60,17.02,-4.31,-72.60,-3.60,-49.95,26.4
2026/04/15 14:29:18.92,IMU,-129.39,91.31,-1010.74,-0.79,10.69,-2.94,-71.85,-2.70,-48.90,26.1
2026/04/15 14:29:19.02,IMU,-128.91,82.52,-1029.79,0.13,9.14,-1.63,-73.95,-3.75,-49.35,26.1
2026/04/15 14:29:19.12,IMU,-112.79,78.12,-1025.39,1.40,2.45,0.11,-73.50,-4.50,-49.35,26.3
2026/04/15 14:29:19.22,IMU,-110.35,83.98,-1019.04,8.80,3.40,-4.93,-73.65,-4.35,-49.95,26.3
2026/04/15 14:29:19.32,IMU,-134.28,122.56,-992.68,1.08,2.41,3.24,-74.25,-4.50,-50.10,26.5
2026/04/15 14:29:19.42,IMU,-130.86,98.14,-1001.95,-1.95,0.82,3.72,-73.65,-5.85,-48.45,26.3
2026/04/15 14:29:19.52,IMU,-131.84,88.38,-991.70,-4.37,-6.75,2.95,-74.10,-5.85,-48.90,26.4
2026/04/15 14:29:19.62,IMU,-136.23,69.34,-1026.86,0.97,0.68,-3.47,-74.55,-4.50,-50.40,26.3
2026/04/15 14:29:19.72,IMU,-127.93,79.59,-1009.77,2.37,-6.95,2.09,-74.85,-4.65,-50.70,26.1
2026/04/15 14:29:19.82,IMU,-113.77,78.12,-971.68,1.00,-2.03,4.84,-73.20,-5.55,-50.40,26.4
2026/04/15 14:29:19.92,IMU,-135.74,76.17,-1045.90,4.27,10.89,0.64,-73.50,-5.55,-51.15,26.4
2026/04/15 14:29:20.02,IMU,-147.46,94.73,-1024.41,-3.51,-11.70,11.19,-74.40,-4.65,-49.50,26.4
2026/04/15 14:29:20.12,IMU,-153.32,85.45,-966.31,0.80,0.08,-3.42,-76.35,-8.40,-43.80,26.5
2026/04/15 14:29:20.22,IMU,-132.32,72.75,-1056.64,-1.60,13.72,1.60,-73.20,-5.25,-49.05,26.4
2026/04/15 14:29:20.32,IMU,-188.48,72.27,-1166.02,1.88,-7.89,-4.48,-74.40,-6.15,-49.50,26.4
2026/04/15 14:29:20.42,IMU,-127.44,59.57,-1145.02,16.18,-1.86,1.07,-72.75,-5.55,-49.05,26.3
2026/04/15 14:29:20.52,IMU,-124.02,44.92,-1090.33,16.16,-11.36,7.29,-74.25,-7.20,-49.35,26.3
2026/04/15 14:29:20.62,IMU,-144.53,23.93,-1045.90,22.55,-5.48,4.98,-74.55,-8.70,-50.10,26.3
2026/04/15 14:29:20.72,IMU,-112.79,-6.84,-1044.92,23.57,-2.11,5.28,-74.85,-10.35,-49.50,26.4
2026/04/15 14:29:20.82,IMU,-202.64,5.86,-978.52,12.40,-11.52,24.80,-74.25,-12.90,-50.40,26.4
2026/04/15 14:29:20.92,IMU,-220.70,-29.79,-976.56,8.01,-11.12,32.83,-72.60,-12.30,-51.00,26.6
2026/04/15 14:29:21.02,IMU,-174.80,-62.01,-615.23,-11.34,-31.15,38.55,-72.00,-14.70,-50.10,26.4
2026/04/15 14:29:21.12,IMU,-412.60,-112.79,-929.69,11.08,-0.19,-4.96,-74.10,-15.75,-44.85,26.2
2026/04/15 14:29:21.22,IMU,-254.39,-41.99,-795.41,-24.55,-30.72,-36.62,-69.30,-11.85,-50.25,26.3
2026/04/15 14:29:21.32,IMU,-376.95,17.09,-1074.71,-7.33,12.27,-61.13,-67.65,-9.45,-49.80,26.4
2026/04/15 14:29:21.42,IMU,-281.74,43.95,-973.63,-5.47,4.02,-59.89,-67.20,-9.75,-49.35,26.3
2026/04/15 14:29:21.52,IMU,-318.36,-14.65,-1071.29,-27.79,3.99,-57.82,-65.85,-7.20,-49.80,26.3
2026/04/15 14:29:21.62,IMU,-202.64,-43.46,-826.66,-12.09,5.21,-43.28,-64.65,-4.80,-48.60,26.6
2026/04/15 14:29:21.72,IMU,-434.57,-49.32,-835.45,-33.79,-20.20,-22.80,-63.45,-3.60,-49.95,26.4
2026/04/15 14:29:21.82,IMU,-321.29,-22.95,-920.90,-3.18,40.18,-39.12,-63.60,-1.05,-47.55,26.4
2026/04/15 14:29:21.92,IMU,-368.16,-10.74,-1043.95,6.82,7.93,-19.24,-64.20,-0.15,-47.40,26.5
2026/04/15 14:29:22.03,IMU,-273.93,-48.83,-959.96,2.21,-25.02,-2.06,-64.20,-1.65,-48.15,26.4
2026/04/15 14:29:22.13,IMU,-293.46,29.79,-959.96,-3.76,3.24,16.74,-61.95,0.15,-46.65,26.4
2026/04/15 14:29:22.23,IMU,-315.92,-12.21,-953.61,-10.58,-35.34,8.16,-62.10,0.30,-47.25,26.3
2026/04/15 14:29:22.33,IMU,-323.24,-27.83,-972.17,9.92,3.46,-14.85,-62.55,1.50,-47.25,26.4
2026/04/15 14:29:22.43,IMU,-244.63,-31.74,-1006.35,12.63,14.99,1.22,-61.35,0.30,-47.55,26.6
2026/04/15 14:29:22.53,IMU,-293.95,-46.39,-978.03,-0.72,-12.65,17.66,-61.20,-0.45,-46.35,26.1
2026/04/15 14:29:22.63,IMU,-280.76,-45.41,-987.79,9.82,15.63,12.11,-62.85,-1.05,-47.55,26.4
2026/04/15 14:29:22.73,IMU,-244.63,-23.44,-916.50,-1.47,4.45,13.33,-64.50,-1.20,-47.10,26.3
2026/04/15 14:29:22.83,IMU,-260.25,-5.86,-938.96,5.02,10.69,5.52,-64.65,-1.05,-46.20,26.4
2026/04/15 14:29:22.93,IMU,-286.13,-30.27,-1044.43,-4.94,13.19,13.29,-66.15,-2.25,-46.80,26.3
2026/04/15 14:29:23.03,IMU,-252.93,-30.27,-1011.72,-0.10,25.80,12.68,-67.65,-3.30,-46.80,26.3
2026/04/15 14:29:23.13,IMU,-136.23,11.23,-948.73,-7.48,2.57,8.11,-68.85,-3.60,-44.10,26.5
2026/04/15 14:29:23.23,IMU,-173.34,-6.35,-1034.18,1.40,30.63,6.67,-69.30,-2.40,-43.05,26.3
2026/04/15 14:29:23.33,IMU,-108.40,-7.32,-1023.44,2.51,9.67,7.63,-69.90,-4.50,-41.10,26.5
2026/04/15 14:29:23.43,IMU,-121.58,-23.44,-1069.34,5.97,18.73,9.09,-70.05,-2.40,-40.20,26.3
2026/04/15 14:29:23.53,IMU,-50.29,-11.23,-1119.63,22.95,39.53,9.13,-68.85,-6.15,-39.75,26.4
2026/04/15 14:29:23.63,IMU,11.72,-35.64,-920.41,9.18,-10.20,4.80,-70.35,-5.85,-38.70,26.4
2026/04/15 14:29:23.73,IMU,-67.87,-41.50,-971.68,-1.18,-6.27,1.37,-73.20,-7.50,-38.55,26.3
2026/04/15 14:29:23.83,IMU,-12.21,-76.17,-964.36,22.40,26.86,-5.11,-76.35,-10.05,-40.50,26.5
2026/04/15 14:29:23.93,IMU,29.30,-104.00,-941.41,22.82,23.10,-5.08,-83.10,-13.65,-40.05,26.3
2026/04/15 14:29:24.03,IMU,-14.16,-145.02,-985.84,-32.83,-26.30,-2.52,-91.35,-15.30,-39.75,26.4
2026/04/15 14:29:24.13,IMU,-49.32,-173.83,-1015.63,7.63,10.48,-8.31,-89.10,-13.80,-41.55,26.4
2026/04/15 14:29:24.23,IMU,-24.41,-187.99,-1004.39,-4.37,-15.04,-10.43,-90.15,-12.90,-40.65,26.3
2026/04/15 14:29:24.33,IMU,35.64,-180.66,-961.91,-10.25,-12.54,-16.32,-89.10,-13.80,-40.50,26.4
2026/04/15 14:29:24.43,IMU,90.33,-124.02,-995.61,-4.08,-0.01,-28.80,-88.20,-14.70,-31.65,26.3
2026/04/15 14:29:24.53,IMU,-32.71,-89.84,-1019.53,-37.95,-25.34,-23.41,-84.15,-14.40,-24.45,26.5
2026/04/15 14:29:24.63,IMU,85.45,-76.17,-1071.29,32.24,10.31,-26.60,-80.70,-12.60,-20.70,26.2
2026/04/15 14:29:24.73,IMU,146.48,-190.43,-1061.04,87.30,108.79,-12.79,-106.95,-22.65,-13.65,26.7
2026/04/15 14:29:24.83,IMU,244.63,-117.19,-1297.36,-60.83,12.22,-19.82,-151.50,-49.35,19.80,26.4
2026/04/15 14:29:24.93,IMU,58.11,-154.79,-789.06,-1.26,9.49,-16.77,-140.55,-52.35,29.85,26.5
2026/04/15 14:29:25.03,IMU,69.82,-84.47,-933.11,-17.37,2.05,3.44,-147.90,-86.85,99.60,26.4
2026/04/15 14:29:25.13,IMU,10.74,-12.70,-1114.26,0.51,-9.90,-0.66,-118.95,-106.05,150.60,26.1
2026/04/15 14:29:25.24,IMU,7.81,-102.54,-946.29,24.67,46.55,15.32,-96.30,-148.05,217.95,26.5
2026/04/15 14:29:25.34,IMU,279.30,-55.66,-717.77,-24.80,13.36,-10.76,42.30,-153.00,260.85,26.3
2026/04/15 14:29:25.44,IMU,258.30,-44.43,-1044.43,-30.03,8.18,0.49,-21.45,-63.90,106.20,26.4
2026/04/15 14:29:25.54,IMU,228.03,82.03,-1239.26,-37.76,-15.92,-6.08,-55.35,-13.05,10.95,26.4
2026/04/15 14:29:25.64,IMU,172.85,-24.90,-900.39,14.25,-10.06,-15.24,-56.85,-8.40,3.00,26.3
2026/04/15 14:29:25.74,IMU,308.59,-3.91,-872.07,2.79,39.60,13.42,-56.55,-11.70,6.75,26.5
2026/04/15 14:29:25.84,IMU,470.70,51.27,-1197.27,-8.58,97.21,18.87,-52.05,-6.60,-0.45,26.1
2026/04/15 14:29:25.94,IMU,623.05,163.57,-1150.88,18.95,57.29,23.21,-46.80,-7.35,0.45,26.4
2026/04/15 14:29:26.04,IMU,403.81,71.78,-757.32,17.30,16.95,3.21,-49.20,-12.90,1.35,26.3
2026/04/15 14:29:26.14,IMU,579.10,-46.39,-803.71,17.23,6.94,-14.27,-42.60,-12.15,-1.80,26.4
2026/04/15 14:29:26.24,IMU,2.44,-241.21,-920.90,22.50,-87.66,-50.89,-33.75,-12.15,-3.15,26.5
2026/04/15 14:29:26.34,IMU,-22.95,-140.14,-1103.52,70.16,-121.10,-24.63,-35.40,-1.65,-33.00,26.5
2026/04/15 14:29:26.44,IMU,186.04,-83.98,-1136.23,18.56,-98.58,-86.79,-38.70,8.10,-44.10,26.5
2026/04/15 14:29:26.54,IMU,334.47,22.95,-1085.94,44.98,-17.82,-4.76,-39.15,10.05,-46.35,26.4
2026/04/15 14:29:26.64,IMU,236.33,-243.16,-559.08,16.08,-51.90,-13.37,-37.95,6.60,-49.95,26.3
2026/04/15 14:29:26.74,IMU,-65.43,-153.81,-1112.30,4.54,-15.63,-20.76,-32.85,7.35,-49.20,26.3
2026/04/15 14:29:26.84,IMU,-39.06,-250.00,-873.54,-16.43,-20.25,-23.55,-32.10,4.65,-47.70,26.3
2026/04/15 14:29:26.94,IMU,-16.11,-268.55,-1171.88,-22.76,8.13,-5.84,-30.60,7.35,-47.70,26.3
2026/04/15 14:29:27.04,IMU,-42.48,-306.64,-888.67,20.32,-19.49,-5.10,-29.85,8.85,-48.15,26.3
2026/04/15 14:29:27.14,IMU,4.88,-300.78,-984.38,-19.87,-1.44,-4.21,-29.70,8.25,-48.30,26.3
2026/04/15 14:29:27.24,IMU,111.82,-187.99,-1068.36,5.77,17.82,18.83,-30.60,7.65,-48.45,26.3
2026/04/15 14:29:27.34,IMU,15.14,-150.88,-1198.24,-28.40,-3.66,8.92,-31.35,8.40,-48.15,26.4
2026/04/15 14:29:27.44,IMU,146.97,-100.10,-1093.75,-11.74,12.86,15.56,-31.80,11.10,-47.70,26.2
2026/04/15 14:29:27.54,IMU,-57.62,-152.83,-883.30,26.03,-10.08,7.31,-32.25,7.95,-46.80,26.4
2026/04/15 14:29:27.64,IMU,30.76,-49.32,-1156.74,-32.24,25.21,14.66,-33.60,8.10,-47.70,26.5
2026/04/15 14:29:27.74,IMU,-21.48,-131.35,-1003.91,2.24,-42.85,-0.73,-34.65,8.40,-46.65,26.5
2026/04/15 14:29:27.84,IMU,-18.07,-95.70,-1322.75,-3.32,20.25,-22.15,-31.95,9.00,-48.00,26.4
2026/04/15 14:29:27.94,IMU,170.90,42.48,-1433.11,16.33,8.28,-40.49,-31.35,10.05,-47.70,26.4
2026/04/15 14:29:28.04,IMU,-96.68,-253.42,-253.42,36.57,-22.30,4.71,-31.20,5.55,-48.60,26.4
2026/04/15 14:29:28.14,IMU,-70.80,-196.78,-1352.54,-26.88,-1.83,0.57,-29.70,6.45,-48.60,26.4
2026/04/15 14:29:28.25,IMU,-27.34,-140.63,-906.25,21.73,13.53,2.43,-30.15,7.20,-48.60,26.4
2026/04/15 14:29:28.35,IMU,52.25,-134.28,-744.14,-3.18,20.13,30.21,-34.20,5.25,-49.35,26.3
2026/04/15 14:29:28.45,IMU,90.82,-119.63,-915.53,2.37,27.42,58.98,-34.50,5.25,-49.05,26.3
2026/04/15 14:29:28.55,IMU,201.17,54.20,-1641.11,-76.60,10.34,52.83,-37.65,7.65,-48.90,26.3
2026/04/15 14:29:28.65,IMU,-147.95,-180.66,-646.00,16.58,-1.63,80.27,-40.65,5.40,-46.65,26.5
2026/04/15 14:29:28.75,IMU,14.16,-64.45,-1281.25,-43.93,7.09,43.25,-43.05,7.50,-47.55,26.2
2026/04/15 14:29:28.85,IMU,-50.78,-175.29,-867.19,47.09,-34.27,33.17,-41.85,6.45,-48.60,26.4
2026/04/15 14:29:28.95,IMU,-10.74,-97.66,-1028.81,-3.41,-5.34,-11.36,-42.00,3.60,-49.95,26.3
2026/04/15 14:29:29.05,IMU,-251.46,-156.25,-965.33,9.73,-36.82,-17.91,-42.45,3.15,-49.95,26.4
2026/04/15 14:29:29.15,IMU,-559.57,-136.72,-1046.39,-31.02,-11.60,-27.77,-40.95,5.40,-47.40,26.5
2026/04/15 14:29:29.25,IMU,-79.10,-123.05,-809.57,36.65,9.01,13.28,-41.10,5.25,-45.75,26.5
2026/04/15 14:29:29.35,IMU,-120.12,-89.84,-1000.00,-32.66,21.69,-34.64,-35.55,7.20,-49.05,26.4
2026/04/15 14:29:29.45,IMU,-51.27,-73.73,-896.00,-10.89,12.37,-19.60,-37.20,9.60,-46.35,26.4
2026/04/15 14:29:29.55,IMU,-92.29,-53.71,-1073.73,4.60,16.48,-43.25,-37.50,10.20,-46.20,26.4
2026/04/15 14:29:29.65,IMU,119.14,-120.61,-1076.17,12.25,-17.55,2.25,-36.00,10.50,-46.20,26.5
2026/04/15 14:29:29.75,IMU,-250.98,-245.61,-1074.22,66.05,9.08,2.36,-36.90,6.90,-46.35,26.4
2026/04/15 14:29:29.85,IMU,202.15,-32.23,-937.99,-12.76,51.89,3.96,-39.30,5.55,-48.30,26.6
2026/04/15 14:29:29.95,IMU,551.27,52.25,-984.38,-22.30,28.00,55.59,-39.45,3.90,-48.90,26.3
2026/04/15 14:29:30.05,IMU,-51.76,-262.70,-798.83,0.07,5.65,27.84,-41.55,2.25,-48.60,26.5
2026/04/15 14:29:30.15,IMU,58.11,-312.01,-799.32,-5.07,-19.69,43.40,-40.95,1.95,-48.45,26.5
2026/04/15 14:29:30.25,IMU,-261.23,-267.09,-1104.98,-5.60,-29.19,18.11,-42.30,-3.00,-43.20,26.3
2026/04/15 14:29:30.35,IMU,-185.06,-167.48,-1161.13,14.24,-36.21,2.14,-37.65,1.20,-47.10,26.5
2026/04/15 14:29:30.45,IMU,-332.52,-50.78,-1182.13,-57.10,11.84,-31.51,-37.65,1.20,-48.45,26.3
2026/04/15 14:29:30.56,IMU,-175.29,-60.06,-900.39,-7.31,-18.44,-43.95,-36.90,8.10,-46.35,26.3
2026/04/15 14:29:30.66,IMU,16.60,-60.55,-1076.17,-54.97,0.69,-29.82,-32.85,8.40,-43.35,26.4
2026/04/15 14:29:30.76,IMU,-183.59,-201.17,-792.97,48.15,-16.03,-34.50,-33.45,11.25,-43.65,26.5
2026/04/15 14:29:30.86,IMU,75.20,-143.07,-886.72,35.20,-2.24,-11.03,-32.10,8.10,-44.10,26.4
2026/04/15 14:29:30.96,IMU,-1.95,-104.49,-1066.41,25.56,47.23,-14.30,-32.10,6.90,-44.10,26.3
2026/04/15 14:29:31.06,IMU,22.95,4.39,-1850.59,-23.93,32.14,29.79,-31.80,6.15,-42.75,26.5
2026/04/15 14:29:31.16,IMU,15.63,-306.15,-937.50,-33.43,-11.52,-15.95,-34.20,7.95,-42.15,26.3
2026/04/15 14:29:31.26,IMU,-285.16,-390.63,-722.17,85.88,-45.73,65.31,-34.95,7.20,-40.65,26.6
2026/04/15 14:29:31.36,IMU,-373.54,74.22,-1162.60,-29.97,-31.35,-3.09,-31.80,6.60,-42.00,26.4
2026/04/15 14:29:31.46,IMU,-297.85,50.29,-1014.65,2.55,-6.08,-44.11,-30.90,6.45,-42.90,26.6
2026/04/15 14:29:31.56,IMU,-23.93,190.92,-952.64,-32.49,7.44,-74.53,-28.50,6.90,-42.75,26.3
2026/04/15 14:29:31.66,IMU,61.52,-209.96,-697.75,-152.97,-3.32,-71.89,-27.75,11.55,-40.20,26.3
2026/04/15 14:29:31.76,IMU,-278.32,-264.16,-1009.77,60.70,12.05,-32.94,-23.55,14.70,-36.75,26.3
2026/04/15 14:29:31.86,IMU,153.81,-124.02,-1008.30,-13.62,50.05,-12.59,-21.60,10.95,-38.25,26.1
2026/04/15 14:29:31.96,IMU,347.17,63.48,-1340.33,122.24,27.03,61.40,-20.40,11.55,-37.95,26.2
2026/04/15 14:29:32.06,IMU,214.36,169.43,-1369.63,-63.31,-12.90,4.94,-23.85,7.95,-40.05,26.2
2026/04/15 14:29:32.16,IMU,358.89,-109.37,-1284.18,-32.24,1.65,5.27,-25.65,13.20,-37.50,26.5
2026/04/15 14:29:32.26,IMU,-464.84,-458.50,-1042.48,87.50,-31.43,52.79,-26.55,11.55,-39.75,26.3
2026/04/15 14:29:32.36,IMU,-247.07,200.68,-1299.32,53.45,13.52,-13.61,-26.10,8.70,-41.40,26.3
2026/04/15 14:29:32.46,IMU,-53.71,64.45,-653.81,45.85,-4.34,-25.97,-26.25,5.40,-42.75,26.4
2026/04/15 14:29:32.56,IMU,-70.31,60.06,-407.23,-63.75,-14.31,-48.08,-26.40,3.75,-44.25,26.3
2026/04/15 14:29:32.66,IMU,0.49,-98.14,-819.34,-113.13,8.01,-26.76,-25.50,9.60,-41.55,26.4
2026/04/15 14:29:32.76,IMU,-333.01,-453.61,-762.21,25.08,9.37,-30.92,-24.00,13.05,-38.70,26.2
2026/04/15 14:29:32.86,IMU,418.95,-235.35,-1634.77,-29.05,-51.11,-11.79,-19.50,12.90,-38.25,26.3
2026/04/15 14:29:32.96,IMU,-156.25,-235.35,-1083.50,96.63,52.63,29.59,-21.15,11.55,-38.70,26.3
2026/04/15 14:29:33.06,IMU,-15.63,42.97,-1685.06,-53.17,34.73,20.02,-22.50,11.10,-39.75,26.4
2026/04/15 14:29:33.16,IMU,270.02,-18.07,-774.41,-51.92,-4.00,6.18,-25.80,14.55,-37.35,26.3
2026/04/15 14:29:33.26,IMU,-413.09,-151.86,-933.59,52.65,-42.82,123.32,-28.65,15.15,-37.05,26.2
2026/04/15 14:29:33.36,IMU,-384.77,-3.42,-969.24,62.08,-18.42,39.17,-30.30,12.60,-40.50,26.4
2026/04/15 14:29:33.46,IMU,-358.40,-166.02,-843.26,16.80,27.56,-29.91,-30.90,8.25,-42.90,26.1
2026/04/15 14:29:33.56,IMU,68.85,93.26,-1318.36,-48.20,12.78,-63.63,-30.45,10.50,-42.15,26.4
2026/04/15 14:29:33.67,IMU,-52.73,-365.23,-899.90,3.82,-1.46,-23.65,-28.80,11.10,-42.30,26.3
2026/04/15 14:29:33.77,IMU,-113.28,-316.89,-756.35,43.44,1.42,-35.69,-26.85,9.00,-41.85,26.1
2026/04/15 14:29:33.87,IMU,74.71,-201.17,-1130.37,19.75,-17.80,-34.31,-24.75,8.40,-43.05,26.4
2026/04/15 14:29:33.97,IMU,11.72,-300.78,-919.43,50.02,8.22,4.57,-26.10,6.45,-44.25,26.0
2026/04/15 14:29:34.07,IMU,42.97,-178.71,-1131.35,-61.55,24.83,-26.09,-26.55,8.10,-44.85,26.3
2026/04/15 14:29:34.17,IMU,392.58,-8.79,-845.21,-77.31,32.90,19.56,-26.40,9.00,-44.25,25.9
2026/04/15 14:29:34.27,IMU,135.25,-196.78,-768.55,29.77,11.14,42.02,-26.40,9.45,-41.10,26.4
2026/04/15 14:29:34.37,IMU,-226.56,-348.14,-833.50,-12.82,-25.71,5.53,-24.75,3.90,-44.10,26.0
2026/04/15 14:29:34.47,IMU,-181.64,-119.63,-1399.41,-3.24,-34.66,-63.13,-23.70,5.10,-41.55,26.3
2026/04/15 14:29:34.57,IMU,-228.52,-60.06,-1283.69,-46.02,-49.79,-62.30,-20.70,5.10,-43.05,26.1
2026/04/15 14:29:34.67,IMU,-239.75,-75.20,-1001.46,27.15,22.64,-24.92,-15.15,6.90,-39.75,26.0
2026/04/15 14:29:34.77,IMU,-11.23,-200.20,-699.22,18.64,43.79,-12.32,-18.30,6.75,-41.40,26.3
2026/04/15 14:29:34.87,IMU,-111.33,-268.07,-815.92,14.10,-11.11,-39.73,-19.50,5.25,-42.90,26.1
2026/04/15 14:29:34.97,IMU,33.69,-173.83,-1240.72,31.99,-18.53,-8.84,-19.95,4.65,-43.05,26.4
2026/04/15 14:29:35.07,IMU,-389.16,-382.81,-951.17,-37.76,-45.38,0.02,-19.65,3.15,-44.85,26.2
2026/04/15 14:29:35.17,IMU,-270.51,-330.08,-1031.25,-1.72,47.00,-1.95,-19.95,6.15,-44.10,26.1
2026/04/15 14:29:35.27,IMU,-6.35,-229.00,-983.40,-7.79,-1.88,-24.72,-22.50,8.10,-44.85,26.3
2026/04/15 14:29:35.37,IMU,-102.05,-155.27,-731.93,53.92,1.20,-29.06,-23.10,6.00,-45.75,26.3
2026/04/15 14:29:35.47,IMU,-160.64,-191.41,-779.79,19.56,-27.06,-47.05,-22.80,4.80,-46.80,26.2
2026/04/15 14:29:35.57,IMU,148.93,28.32,-1307.62,-23.96,-1.15,-67.06,-17.70,3.15,-46.65,26.3
2026/04/15 14:29:35.67,IMU,237.30,156.74,-1610.35,-87.87,-2.63,-121.70,-19.20,5.10,-45.60,26.4
2026/04/15 14:29:35.77,IMU,-297.36,-372.07,-726.56,19.36,31.49,-21.47,-22.35,5.55,-46.20,26.0
2026/04/15 14:29:35.87,IMU,3.42,-172.85,-619.63,2.20,-20.17,-92.55,-21.75,5.10,-48.15,26.1
2026/04/15 14:29:35.97,IMU,52.25,-194.34,-953.61,-21.68,-22.84,-63.40,-17.70,2.40,-48.15,26.3
2026/04/15 14:29:36.07,IMU,197.75,-119.14,-1268.55,-4.00,-13.85,-37.23,-12.45,4.05,-45.45,26.3
2026/04/15 14:29:36.17,IMU,549.80,254.39,-1407.71,-26.83,32.10,-56.27,-12.45,2.55,-46.20,26.3
2026/04/15 14:29:36.27,IMU,-182.62,-192.87,-668.46,-33.56,10.21,-30.74,-14.85,3.15,-47.40,26.5
2026/04/15 14:29:36.37,IMU,235.35,-2.93,-994.63,40.63,-0.36,24.98,-12.60,4.35,-46.65,26.1
2026/04/15 14:29:36.47,IMU,-114.75,-187.50,-772.46,25.54,-31.05,-2.54,-13.50,3.30,-48.00,26.1
2026/04/15 14:29:36.57,IMU,-2.93,-37.60,-1122.07,13.18,-29.89,-35.55,-10.80,3.60,-47.40,26.4
2026/04/15 14:29:36.67,IMU,-268.07,-120.61,-1038.57,-15.20,-45.47,-44.76,-10.20,1.05,-49.80,26.3
2026/04/15 14:29:36.77,IMU,-49.80,114.26,-1170.41,23.04,10.52,-2.61,-6.30,-0.15,-47.70,26.3
2026/04/15 14:29:36.88,IMU,-61.04,-234.86,-335.45,19.29,10.21,6.44,-7.05,-1.20,-48.90,26.3
2026/04/15 14:29:36.98,IMU,160.16,-122.56,-873.54,12.36,-45.02,-37.44,-6.75,-1.95,-48.15,26.5
2026/04/15 14:29:37.08,IMU,-26.86,-278.81,-1092.77,2.08,14.85,-10.11,-3.45,-3.60,-48.15,26.4
2026/04/15 14:29:37.18,IMU,-124.51,-255.86,-783.69,46.83,27.34,19.11,-5.10,-6.00,-49.80,26.4
2026/04/15 14:29:37.28,IMU,136.72,-117.19,-989.75,22.45,12.34,28.34,-6.30,-6.60,-49.95,26.4
2026/04/15 14:29:37.38,IMU,55.18,-98.14,-1058.59,-33.19,9.07,-16.63,-7.50,-6.90,-48.45,26.3
2026/04/15 14:29:37.48,IMU,-142.58,-213.87,-736.82,-1.84,-2.47,11.53,-6.30,-6.60,-51.75,26.2
2026/04/15 14:29:37.58,IMU,-142.09,-199.71,-841.80,9.47,-2.71,8.06,-4.35,-6.75,-51.60,26.3
2026/04/15 14:29:37.68,IMU,-180.18,-172.85,-1109.86,-2.12,-16.49,-0.24,-1.80,-7.20,-52.65,26.3
2026/04/15 14:29:37.78,IMU,-339.84,-341.31,-783.69,-4.85,8.69,1.44,-0.30,-9.45,-52.20,26.3
2026/04/15 14:29:37.88,IMU,-116.21,-125.98,-1206.05,4.36,23.40,-4.47,0.00,-9.45,-53.40,26.1
2026/04/15 14:29:37.98,IMU,-76.17,-98.63,-1052.73,9.52,17.21,-19.91,-1.05,-12.90,-52.20,26.3
2026/04/15 14:29:38.08,IMU,62.50,-110.84,-698.73,14.06,19.93,-9.50,-2.85,-15.15,-52.20,26.2
2026/04/15 14:29:38.18,IMU,96.68,-115.72,-809.08,-4.68,21.31,-1.37,-4.50,-16.80,-52.80,26.1
2026/04/15 14:29:38.28,IMU,97.17,-113.77,-1020.02,-3.92,37.89,31.78,-5.40,-16.65,-53.70,26.4
2026/04/15 14:29:38.38,IMU,-37.60,-19.53,-1306.15,-24.01,21.24,-17.52,-5.70,-14.10,-53.55,26.3
2026/04/15 14:29:38.48,IMU,118.65,15.63,-1014.16,13.02,-7.39,48.50,-6.60,-12.45,-53.70,26.3
2026/04/15 14:29:38.58,IMU,43.95,-35.64,-957.03,13.43,8.72,58.98,-6.60,-11.25,-53.70,26.3
2026/04/15 14:29:38.68,IMU,10.74,-68.36,-916.50,-16.29,1.33,41.30,-7.05,-10.35,-54.30,26.3
2026/04/15 14:29:38.78,IMU,-106.45,-95.21,-1011.23,-16.29,-12.37,43.06,-5.40,-7.50,-54.75,26.2
2026/04/15 14:29:38.88,IMU,-11.72,-74.71,-1104.00,-34.77,0.80,13.21,-5.40,-4.05,-54.45,26.1
2026/04/15 14:29:38.98,IMU,-98.14,-113.28,-918.46,-7.83,-9.21,57.01,-6.60,-0.75,-54.45,26.4
2026/04/15 14:29:39.08,IMU,-139.65,-125.49,-1041.99,-23.03,-4.84,17.11,-5.10,1.50,-54.75,26.2
2026/04/15 14:29:39.18,IMU,-98.63,-40.53,-1127.93,-4.24,13.43,7.14,-4.65,3.75,-53.70,26.2
2026/04/15 14:29:39.28,IMU,-208.01,-56.64,-1096.68,5.22,-2.08,-8.02,-4.35,4.05,-53.40,26.1
2026/04/15 14:29:39.39,IMU,-171.88,9.77,-896.00,22.38,-0.60,-20.82,-4.95,1.95,-53.85,26.1
2026/04/15 14:29:39.49,IMU,-131.35,9.77,-1011.72,-0.27,-12.90,-23.58,-6.60,0.00,-52.20,25.9
2026/04/15 14:29:39.59,IMU,-215.33,-59.57,-986.82,-1.91,2.32,-50.73,-3.45,-2.70,-51.75,26.3
2026/04/15 14:29:39.69,IMU,-114.75,-109.86,-853.03,-7.21,-2.96,-41.59,-3.30,-3.75,-54.00,26.3
2026/04/15 14:29:39.79,IMU,-118.65,-99.61,-1046.88,-19.99,4.23,-60.30,-3.60,-3.30,-52.20,26.3
2026/04/15 14:29:39.89,IMU,-236.33,-162.60,-1001.95,6.56,-0.18,-49.90,-3.45,-4.35,-52.80,26.3
2026/04/15 14:29:39.99,IMU,-177.25,-127.44,-1051.76,21.92,-7.44,-52.34,-3.60,-7.20,-52.20,26.3
2026/04/15 14:29:40.09,IMU,-260.74,-153.32,-1225.59,21.15,-18.20,-45.48,-4.20,-11.55,-51.30,26.0
2026/04/15 14:29:40.19,IMU,-313.48,-210.45,-958.01,31.98,-17.40,-50.24,-3.00,-16.80,-48.15,26.3
2026/04/15 14:29:40.29,IMU,-284.67,-113.77,-1062.50,1.53,-35.98,-56.89,-3.30,-20.85,-47.25,25.9
2026/04/15 14:29:40.39,IMU,-34.18,-88.87,-1198.24,8.53,-23.83,-49.74,-3.45,-20.55,-46.35,26.3
2026/04/15 14:29:40.49,IMU,-53.22,-159.67,-976.56,17.56,-23.20,-67.73,-3.45,-25.20,-43.80,25.9
2026/04/15 14:29:40.59,IMU,-17.58,-240.72,-869.14,21.82,-28.01,-54.98,-7.65,-28.80,-41.85,26.1
2026/04/15 14:29:40.69,IMU,-57.62,-334.96,-869.63,5.68,-14.97,-57.46,-6.15,-32.25,-42.45,26.0
2026/04/15 14:29:40.79,IMU,-79.10,-343.75,-923.34,-2.70,-13.18,-50.87,-10.20,-34.05,-40.65,26.2
2026/04/15 14:29:40.89,IMU,-88.87,-378.91,-875.98,5.85,-20.39,-42.00,-10.35,-36.15,-40.50,26.3
2026/04/15 14:29:40.99,IMU,-292.97,-464.84,-780.76,-14.54,-28.34,-40.80,-10.20,-36.45,-39.30,26.3
2026/04/15 14:29:41.09,IMU,12.21,-304.20,-730.47,6.99,-9.32,-14.59,-13.65,-38.40,-39.75,26.3
2026/04/15 14:29:41.20,IMU,-224.61,-406.25,-829.10,-12.41,-2.81,-20.82,-13.50,-37.20,-39.30,26.1
2026/04/15 14:29:41.30,IMU,-145.51,-437.50,-787.60,7.94,5.60,-16.84,-13.50,-37.95,-37.80,26.2
2026/04/15 14:29:41.40,IMU,-190.92,-481.93,-826.66,1.31,11.11,-10.34,-14.25,-38.70,-39.30,26.4
2026/04/15 14:29:41.50,IMU,-514.65,-674.32,-1357.42,15.60,-7.28,8.92,-15.60,-37.65,-38.70,26.4
2026/04/15 14:29:41.60,IMU,171.39,-472.66,-262.70,7.82,12.84,8.20,-16.35,-39.60,-37.35,26.4
2026/04/15 14:29:41.70,IMU,-150.88,-421.39,-1258.30,8.18,28.53,-8.67,-13.50,-37.95,-35.70,26.3
2026/04/15 14:29:41.80,IMU,-52.73,-469.73,-783.69,-1.21,-3.46,17.90,-12.60,-39.60,-36.15,26.4
2026/04/15 14:29:41.90,IMU,74.22,-325.20,-930.18,14.58,25.44,22.00,-12.60,-38.40,-36.60,26.1
2026/04/15 14:29:42.00,IMU,278.81,-281.25,-459.96,-53.45,62.08,80.11,-12.00,-36.45,-37.05,26.4
2026/04/15 14:29:42.10,IMU,388.67,-166.02,-978.52,-80.41,26.60,92.77,-10.80,-31.20,-42.75,26.4
2026/04/15 14:29:42.20,IMU,-242.68,-208.01,-1047.36,-56.95,-25.48,36.78,-3.00,-22.95,-43.35,26.1
2026/04/15 14:29:42.30,IMU,-304.20,-298.34,-825.68,-32.50,-12.26,5.82,-0.45,-19.50,-42.30,26.1
2026/04/15 14:29:42.40,IMU,-561.52,-84.47,-1821.78,-57.50,4.10,22.63,-0.60,-17.40,-42.45,26.1
2026/04/15 14:29:42.50,IMU,306.64,113.77,-1090.82,134.58,95.90,116.58,-6.00,-16.50,-46.35,26.1
2026/04/15 14:29:42.60,IMU,879.88,2.93,-1403.32,31.23,17.07,-20.60,-14.25,-18.90,-51.15,26.3
2026/04/15 14:29:42.70,IMU,-106.93,-443.36,-647.95,30.45,93.43,44.43,-13.20,-23.10,-49.80,25.9
2026/04/15 14:29:42.80,IMU,-131.35,-469.73,-977.05,48.73,152.56,-47.15,-21.30,-23.40,-50.85,26.2
2026/04/15 14:29:42.90,IMU,-94.24,-618.16,-736.82,-80.73,112.44,-132.21,-33.45,-23.85,-54.75,26.3
2026/04/15 14:29:43.00,IMU,521.48,-585.94,-375.98,63.52,59.70,-104.66,-48.00,-21.75,-56.40,26.3
2026/04/15 14:29:43.10,IMU,389.16,-419.43,-593.75,40.14,-100.92,53.50,-45.00,-19.80,-54.60,25.9
2026/04/15 14:29:43.20,IMU,726.07,-17.58,-790.04,82.27,-81.57,7.08,-38.40,-24.00,-57.45,26.2
2026/04/15 14:29:43.30,IMU,1122.56,209.96,-78.61,-50.25,-5.51,-65.35,-37.20,-26.70,-58.95,26.1
2026/04/15 14:29:43.40,IMU,190.43,-94.73,-1115.72,3.31,-82.20,82.68,-29.55,-27.45,-60.75,26.2
2026/04/15 14:29:43.50,IMU,331.54,-87.40,-1032.23,26.35,-7.93,-11.33,-31.35,-31.20,-34.35,26.3
2026/04/15 14:29:43.60,IMU,564.94,123.05,-811.04,-73.28,-68.76,124.61,-36.15,3.15,-47.40,26.3
2026/04/15 14:29:43.70,IMU,32.71,33.69,-739.26,-115.61,-46.53,17.34,-27.45,25.05,-51.15,26.1
2026/04/15 14:29:43.80,IMU,406.25,75.68,-1280.27,63.66,-0.71,93.27,-9.00,-0.15,-35.55,26.3
2026/04/15 14:29:43.90,IMU,-121.09,-117.19,-1057.13,4.85,66.79,37.39,-11.55,16.50,-35.55,26.4
2026/04/15 14:29:44.00,IMU,-963.38,-981.93,930.18,-10.26,250.13,66.33,-7.80,10.80,-37.65,26.1
2026/04/15 14:29:44.10,IMU,124.51,34.67,-1012.21,-0.82,4.71,-0.30,-13.95,18.90,-42.15,26.1
2026/04/15 14:29:44.20,IMU,18.07,-28.81,-990.72,-0.21,0.32,-0.73,-14.85,16.80,-42.00,26.4
2026/04/15 14:29:44.30,IMU,12.70,-22.46,-1007.32,-0.60,0.79,1.29,-14.10,16.80,-42.00,26.3
2026/04/15 14:29:44.41,IMU,22.95,-24.41,-1016.60,-0.02,2.43,2.11,-13.05,17.25,-42.75,26.3
2026/04/15 14:29:44.51,IMU,6.84,-18.55,-1017.09,0.47,0.63,-0.76,-14.40,16.50,-41.25,26.2
2026/04/15 14:29:44.61,IMU,11.72,-18.55,-1018.07,0.06,2.51,-2.43,-14.40,15.75,-42.30,26.0
2026/04/15 14:29:44.71,IMU,7.81,-25.39,-1012.70,1.12,-2.63,1.14,-13.95,18.60,-43.65,26.1
2026/04/15 14:29:44.81,IMU,9.77,-19.53,-1003.42,-0.02,-0.63,0.58,-14.85,16.05,-42.30,26.1
2026/04/15 14:29:44.91,IMU,12.70,-27.83,-1010.74,2.08,0.93,-2.60,-14.25,18.15,-41.85,26.4
2026/04/15 14:29:45.01,IMU,22.95,-26.37,-1013.67,1.32,1.51,-2.74,-13.65,17.55,-41.25,26.1
2026/04/15 14:29:45.11,IMU,11.72,-22.46,-1017.58,-0.09,1.47,-1.73,-13.65,18.75,-41.55,26.3
2026/04/15 14:29:45.21,IMU,10.74,-19.53,-1019.04,2.05,1.90,0.37,-14.10,17.25,-41.55,26.3
2026/04/15 14:29:45.31,IMU,3.42,-30.27,-1021.00,-0.15,1.66,-0.05,-14.70,18.15,-41.85,26.5
2026/04/15 14:29:45.41,IMU,12.70,-24.41,-1032.23,-0.66,-0.36,0.43,-13.05,17.55,-41.25,26.3
2026/04/15 14:29:45.51,IMU,-13.18,10.25,-933.59,-1.13,-0.18,0.37,-13.05,18.30,-42.30,26.1
2026/04/15 14:29:45.61,IMU,8.30,-28.32,-1044.92,1.78,2.16,0.06,-16.05,16.95,-41.40,26.3
2026/04/15 14:29:45.71,IMU,-9.28,-18.55,-1027.83,-0.10,1.00,0.70,-13.05,19.50,-42.30,26.2
2026/04/15 14:29:45.81,IMU,14.65,-40.04,-989.26,0.62,1.80,0.20,-13.50,17.40,-41.10,26.2
2026/04/15 14:29:45.91,IMU,16.11,-21.97,-1029.79,-0.34,2.79,1.14,-13.35,18.00,-40.95,26.4
2026/04/15 14:29:46.01,IMU,-5.86,-28.32,-1012.70,1.50,2.95,0.05,-13.20,17.70,-42.15,26.1
2026/04/15 14:29:46.11,IMU,3.42,-20.51,-1034.67,0.24,-0.12,-2.28,-14.25,17.40,-41.85,26.4
2026/04/15 14:29:46.21,IMU,7.81,-22.95,-1006.84,0.24,1.30,-2.56,-14.25,16.95,-41.10,26.4
2026/04/15 14:29:46.31,IMU,4.39,-22.95,-1005.37,-0.11,1.19,-1.08,-14.40,17.25,-40.50,26.4
2026/04/15 14:29:46.41,IMU,6.35,-29.79,-1018.07,0.99,2.66,-0.40,-13.95,18.60,-42.15,26.4
2026/04/15 14:29:46.51,IMU,13.67,-26.86,-1018.55,-1.65,2.89,-1.37,-15.60,17.55,-38.40,26.3
2026/04/15 14:29:46.61,IMU,7.32,-21.97,-1014.16,0.57,-0.74,-0.15,-15.60,17.25,-41.25,26.3
2026/04/15 14:29:46.71,IMU,12.21,-26.37,-1018.07,-0.76,0.56,1.47,-14.10,18.75,-40.50,26.1
2026/04/15 14:29:46.81,IMU,25.39,-21.00,-1019.04,0.83,-0.79,2.49,-13.95,17.70,-42.15,26.3
2026/04/15 14:29:46.91,IMU,0.49,-19.53,-1020.51,1.51,-1.27,0.53,-13.50,18.15,-41.85,26.6
2026/04/15 14:29:47.01,IMU,8.30,-32.23,-1006.84,-0.90,1.95,4.50,-14.40,18.00,-40.95,26.3
2026/04/15 14:29:47.11,IMU,-79.59,67.38,-1059.57,-3.24,9.82,5.03,-13.65,18.00,-42.30,26.3
2026/04/15 14:29:47.21,IMU,23.44,-21.00,-962.89,0.65,-1.07,-2.39,-13.05,18.75,-41.55,26.2
2026/04/15 14:29:47.31,IMU,162.11,46.88,-1136.72,-2.79,33.28,1.61,-14.10,18.00,-40.95,26.4
2026/04/15 14:29:47.41,IMU,-895.02,34.67,-1959.47,2.44,-9.33,-28.15,-17.10,15.30,-55.35,26.3
2026/04/15 14:29:47.51,IMU,-146.97,100.59,-969.24,-9.73,-1.56,-18.05,-12.00,6.75,-7.50,26.2
2026/04/15 14:29:47.62,IMU,-177.25,271.00,-891.11,-6.37,-17.77,-168.36,-7.50,6.15,-5.55,25.9
2026/04/15 14:29:47.72,IMU,-212.89,-30.76,-922.85,-4.06,20.70,-190.24,-11.55,-7.35,-35.85,26.4
2026/04/15 14:29:47.82,IMU,-143.55,-51.76,-1216.80,3.41,45.15,-177.98,-12.45,-10.20,-29.85,26.5
2026/04/15 14:29:47.92,IMU,552.73,286.62,-1066.41,-3.28,-7.15,-79.97,-16.80,-16.65,-36.75,26.3
2026/04/15 14:29:48.02,IMU,148.93,190.43,-1083.50,-2.82,-3.40,35.18,-16.80,-16.20,-36.75,26.4
2026/04/15 14:29:48.12,IMU,-50.29,-44.43,-846.19,14.89,-6.38,111.68,-14.70,-11.70,-30.60,26.3
2026/04/15 14:29:48.22,IMU,72.75,46.39,-1124.51,1.07,0.37,78.02,-11.85,-7.65,-27.60,26.1
2026/04/15 14:29:48.32,IMU,-358.40,-103.03,-974.61,0.29,9.97,28.00,-11.85,-3.90,-30.00,26.5
2026/04/15 14:29:48.42,IMU,18.07,91.80,-1104.98,-3.53,15.57,15.95,-10.95,-3.75,-35.70,26.1
2026/04/15 14:29:48.53,IMU,-50.78,-19.53,-966.80,2.80,0.26,9.58,-15.00,-4.50,-31.65,26.4
2026/04/15 14:29:48.63,IMU,-6.35,-45.90,-638.18,-20.17,-16.85,24.60,-11.55,-0.90,-38.40,26.0
2026/04/15 14:29:48.73,IMU,-21.00,-17.58,-1049.80,-0.34,-2.08,-2.59,-10.35,-0.15,-35.85,26.1
2026/04/15 14:29:48.83,IMU,-12.70,-21.00,-1041.02,1.34,-0.53,-0.08,-11.40,0.00,-36.75,26.3
2026/04/15 14:29:48.93,IMU,-10.25,-23.93,-1010.74,1.40,0.06,2.47,-11.55,-0.90,-36.90,26.5
2026/04/15 14:29:49.03,IMU,-8.79,-12.21,-1019.04,-1.10,-0.58,-1.75,-10.95,-0.75,-36.75,26.4
2026/04/15 14:29:49.13,IMU,-10.25,-16.11,-1001.46,-0.68,-0.92,-4.21,-10.80,-0.90,-36.90,26.3
2026/04/15 14:29:49.23,IMU,-28.32,-30.27,-1000.00,0.71,-0.71,-2.37,-10.80,-0.45,-35.55,26.4
2026/04/15 14:29:49.33,IMU,-37.11,-30.76,-1002.93,0.82,-1.71,-3.69,-11.85,-0.90,-36.90,26.4
2026/04/15 14:29:49.43,IMU,-34.67,-43.95,-979.49,1.81,2.47,-14.85,-11.40,-0.75,-35.70,26.1
2026/04/15 14:29:49.53,IMU,-19.53,-19.04,-1026.37,1.04,2.04,0.82,-10.35,-1.65,-38.40,26.4
2026/04/15 14:29:49.63,IMU,19.53,-28.81,-1085.45,-0.18,-0.12,-4.52,-10.65,-1.80,-37.80,26.1
2026/04/15 14:29:49.73,IMU,-13.18,-23.93,-987.30,0.10,0.20,1.07,-11.10,-1.95,-37.35,26.1
2026/04/15 14:29:49.83,IMU,-24.41,-17.09,-1021.00,1.44,-0.98,2.13,-11.85,-0.45,-37.35,26.4
2026/04/15 14:29:49.93,IMU,-21.48,-17.58,-1017.58,0.66,-0.66,0.05,-10.35,-1.65,-37.95,26.1
2026/04/15 14:29:50.03,IMU,-17.58,-26.86,-1021.00,0.43,-0.27,-0.66,-10.95,-0.75,-38.55,26.4
2026/04/15 14:29:50.13,IMU,-21.48,-26.37,-1021.00,1.05,0.27,0.99,-9.45,-0.30,-38.25,26.4
2026/04/15 14:29:50.23,IMU,-17.09,-19.04,-1014.65,0.47,0.11,0.53,-10.95,-1.05,-37.80,26.4
2026/04/15 14:29:50.33,IMU,-7.32,-16.11,-1017.09,-0.15,-1.54,2.91,-10.80,-0.15,-36.90,26.4
2026/04/15 14:29:50.43,IMU,-31.25,-24.41,-1012.70,0.06,0.34,2.15,-11.10,-1.95,-38.40,26.3
2026/04/15 14:29:50.53,IMU,-13.18,-17.58,-1032.71,1.27,-1.50,0.63,-11.55,-0.90,-36.60,26.2
2026/04/15 14:29:50.63,IMU,0.00,0.49,-1011.23,-0.72,1.94,3.28,-10.35,-1.20,-37.35,26.3
2026/04/15 14:29:50.73,IMU,110.35,-12.21,-1005.37,-0.07,0.55,84.70,-12.00,-1.05,-37.05,26.7
2026/04/15 14:29:50.83,IMU,253.91,234.38,-931.15,5.45,0.76,95.93,-12.75,1.80,-34.65,26.2
2026/04/15 14:29:50.93,IMU,-1524.41,-465.82,-861.82,1.95,-9.18,74.05,-13.50,4.50,-23.10,26.4
2026/04/15 14:29:51.03,IMU,29.79,6.35,-936.52,-0.72,5.05,1.27,-13.05,6.15,-21.00,26.3
2026/04/15 14:29:51.13,IMU,-23.93,-22.46,-1044.92,0.54,0.97,0.50,-13.50,5.55,-21.60,26.4
2026/04/15 14:29:51.23,IMU,-13.67,-5.86,-1000.00,-1.34,-1.83,-1.20,-14.40,4.65,-22.05,26.3
2026/04/15 14:29:51.33,IMU,-21.97,-19.04,-1021.97,0.21,0.29,-0.73,-14.25,6.00,-21.90,26.0
2026/04/15 14:29:51.43,IMU,-34.18,-1.95,-1484.86,3.25,-12.32,0.48,-14.25,5.55,-21.60,26.6
2026/04/15 14:29:51.53,IMU,-26.86,-2.93,-1045.90,0.46,1.42,-0.18,-14.10,6.15,-22.50,26.4
2026/04/15 14:29:51.64,IMU,-27.83,-2.93,-998.05,-0.31,-0.02,2.28,-14.25,4.80,-20.55,26.3
2026/04/15 14:29:51.74,IMU,-22.95,-22.46,-1011.23,-0.43,3.35,0.04,-13.95,5.55,-21.60,26.4
2026/04/15 14:29:51.84,IMU,-24.41,-12.21,-1028.32,-0.01,1.40,1.21,-13.20,5.55,-22.65,26.4
2026/04/15 14:29:51.94,IMU,-14.16,-31.74,-1010.74,-0.60,-0.73,0.37,-14.25,6.00,-21.90,26.2
2026/04/15 14:29:52.04,IMU,-16.60,-7.81,-1010.74,1.44,2.33,0.43,-14.25,6.45,-22.35,26.4
2026/04/15 14:29:52.14,IMU,-15.14,-13.67,-1008.79,0.48,0.87,0.56,-13.95,5.55,-23.40,26.4
2026/04/15 14:29:52.24,IMU,-24.41,-23.44,-1004.88,1.62,0.22,1.09,-15.15,5.85,-22.05,26.3
2026/04/15 14:29:52.34,IMU,-13.18,-15.63,-1003.42,0.09,-0.48,0.55,-14.40,5.10,-21.00,26.4
2026/04/15 14:29:52.44,IMU,-10.25,-23.93,-1002.44,-0.13,-1.14,-1.35,-14.85,5.85,-21.00,26.5
2026/04/15 14:29:52.54,IMU,-21.97,-27.83,-1008.30,-0.48,2.17,2.23,-14.25,5.25,-22.65,26.3
2026/04/15 14:29:52.64,IMU,-24.90,-20.02,-1011.72,1.24,0.27,1.24,-13.50,5.25,-22.65,26.3
2026/04/15 14:29:52.74,IMU,-6.84,-17.58,-1005.37,0.73,-1.53,-3.62,-14.25,5.55,-21.60,26.3
2026/04/15 14:29:52.84,IMU,-28.81,-20.02,-1022.46,1.11,-1.22,0.26,-14.70,6.45,-21.15,26.5
2026/04/15 14:29:52.94,IMU,-22.95,-15.63,-1012.21,1.08,0.04,-1.38,-13.35,5.10,-21.75,26.5
2026/04/15 14:29:53.04,IMU,-17.58,-22.95,-1018.07,1.24,1.18,-0.57,-13.95,6.75,-23.10,26.2
2026/04/15 14:29:53.14,IMU,-32.23,-17.58,-1005.37,1.12,-0.49,-0.24,-13.35,4.65,-21.75,26.4
2026/04/15 14:29:53.24,IMU,-13.67,-17.58,-1017.09,0.78,-0.23,-5.49,-13.05,5.10,-23.25,26.2
2026/04/15 14:29:53.34,IMU,-23.44,-27.34,-1008.79,-0.89,-0.05,0.79,-14.70,6.00,-21.90,26.4
2026/04/15 14:29:53.44,IMU,-23.44,-16.60,-1011.72,0.47,0.53,-0.13,-13.05,4.35,-21.75,26.1
2026/04/15 14:29:53.54,IMU,-17.58,-19.04,-1011.72,0.30,2.45,-0.51,-13.95,6.00,-21.90,26.3
2026/04/15 14:29:53.64,IMU,-17.58,-29.30,-1020.51,0.41,2.88,0.60,-13.20,6.45,-21.60,26.3
2026/04/15 14:29:53.74,IMU,-18.07,-0.49,-1012.70,1.36,2.79,-0.92,-14.40,5.40,-20.70,26.3
2026/04/15 14:29:53.84,IMU,-28.81,-26.86,-1003.42,-0.23,1.54,0.30,-13.20,5.55,-23.40,26.4
2026/04/15 14:29:53.94,IMU,-28.81,-26.37,-1022.95,0.89,-0.15,0.59,-15.45,6.00,-22.65,26.3
2026/04/15 14:29:54.04,IMU,-25.88,-22.95,-1006.84,1.44,0.33,-4.11,-13.20,5.55,-21.90,26.3
2026/04/15 14:29:54.14,IMU,-26.37,-12.70,-1010.25,1.85,0.40,-1.46,-12.75,4.05,-21.90,26.6
2026/04/15 14:29:54.24,IMU,-27.83,-21.48,-1030.27,1.98,-0.84,-2.95,-13.50,4.50,-22.65,26.4
2026/04/15 14:29:54.34,IMU,-30.76,-15.63,-1015.63,0.80,2.71,-0.07,-13.05,5.10,-21.75,26.5
2026/04/15 14:29:54.44,IMU,-27.34,-8.30,-1014.65,-0.58,0.02,1.96,-13.65,5.10,-23.25,26.3
2026/04/15 14:29:54.54,IMU,-16.60,-14.65,-1008.79,0.82,0.50,1.15,-13.95,5.25,-23.40,26.3
2026/04/15 14:29:54.64,IMU,-23.44,-30.76,-1010.74,-0.25,-0.30,1.69,-16.80,4.80,-18.00,26.1
2026/04/15 14:29:54.74,IMU,-19.04,-17.09,-1017.09,0.24,1.10,-0.66,-13.95,4.80,-21.15,26.3
2026/04/15 14:29:54.85,IMU,-10.74,-27.83,-1016.11,0.89,-0.11,-2.62,-13.20,5.55,-20.85,26.5
2026/04/15 14:29:54.95,IMU,-19.53,-22.95,-1007.32,-0.12,-0.53,-1.83,-13.20,5.25,-21.15,26.4
2026/04/15 14:29:55.05,IMU,-10.25,-23.93,-1016.60,2.08,1.25,-1.02,-13.35,5.10,-22.05,26.4
2026/04/15 14:29:55.15,IMU,-18.55,-14.65,-1009.77,0.53,1.05,3.20,-13.20,6.00,-22.35,26.4
2026/04/15 14:29:55.25,IMU,-19.04,-23.44,-1025.39,0.50,1.64,-2.19,-13.05,3.90,-22.50,26.4
2026/04/15 14:29:55.35,IMU,-9.28,-23.44,-1010.74,0.02,0.45,-0.75,-13.95,4.50,-20.85,26.3
2026/04/15 14:29:55.45,IMU,-24.41,-13.18,-1020.02,-0.52,2.05,-0.39,-13.35,5.85,-21.75,26.4
2026/04/15 14:29:55.55,IMU,-20.02,-12.70,-1017.09,0.55,0.21,-0.34,-13.35,4.65,-21.75,26.6
2026/04/15 14:29:55.65,IMU,-24.41,-14.65,-1017.58,0.11,-1.51,-3.04,-16.80,4.50,-18.30,26.4
2026/04/15 14:29:55.75,IMU,-31.74,-21.00,-1029.30,-3.38,2.10,-0.82,-13.50,5.55,-21.60,26.3
2026/04/15 14:29:55.85,IMU,-16.11,-24.41,-1015.14,0.20,1.78,1.95,-12.45,6.00,-23.10,26.3
2026/04/15 14:29:55.95,IMU,-13.67,-2.44,-1013.67,0.56,2.17,3.08,-14.10,4.35,-23.25,26.5
2026/04/15 14:29:56.05,IMU,-15.14,-6.84,-1028.81,0.55,1.02,-0.49,-14.40,5.10,-22.05,26.3
2026/04/15 14:29:56.15,IMU,-22.95,-31.25,-1005.86,0.81,-0.21,3.15,-13.65,5.40,-21.00,26.3
2026/04/15 14:29:56.25,IMU,-26.86,-19.04,-1011.72,-1.04,-1.01,1.69,-14.10,5.40,-21.45,26.3
2026/04/15 14:29:56.35,IMU,-35.64,-28.81,-1000.00,2.34,-0.28,2.85,-14.25,5.25,-23.10,26.3
2026/04/15 14:29:56.45,IMU,-32.71,-24.90,-1008.79,0.20,-1.38,1.53,-14.10,5.85,-21.00,26.4
2026/04/15 14:29:56.55,IMU,-19.53,-20.51,-1012.70,1.10,2.02,1.92,-13.95,6.00,-22.35,26.2
2026/04/15 14:29:56.65,IMU,-21.00,-25.39,-1010.74,0.32,0.62,1.88,-13.65,5.85,-23.25,26.5
2026/04/15 14:29:56.75,IMU,-26.86,-18.07,-1033.20,-0.18,-0.11,-1.27,-14.25,4.05,-22.65,26.3
2026/04/15 14:29:56.85,IMU,-34.67,-20.02,-1021.48,-0.53,0.83,-2.21,-14.25,6.45,-21.15,26.4
2026/04/15 14:29:56.95,IMU,-20.02,-26.37,-1021.00,-2.85,-0.60,-2.73,-14.10,6.60,-20.70,26.4
2026/04/15 14:29:57.05,IMU,-37.11,-28.81,-1020.02,-0.04,-0.15,1.64,-12.30,4.65,-22.50,26.4
2026/04/15 14:29:57.15,IMU,-28.81,-25.39,-1019.53,-0.31,2.52,-3.18,-13.50,5.25,-23.10,26.5
2026/04/15 14:29:57.25,IMU,-19.53,-32.23,-1007.81,-0.09,0.97,1.71,-14.40,5.10,-22.05,26.7
2026/04/15 14:29:57.35,IMU,-22.95,-7.32,-1014.65,0.00,2.76,-0.48,-14.40,6.90,-21.45,26.6
2026/04/15 14:29:57.45,IMU,-31.25,-21.48,-1016.60,0.74,-0.43,1.60,-14.10,5.85,-21.00,26.4
2026/04/15 14:29:57.55,IMU,-14.65,-22.46,-1021.00,-1.79,-0.01,-0.01,-13.20,5.55,-21.60,26.1
2026/04/15 14:29:57.65,IMU,-24.90,-23.93,-1018.55,0.19,0.04,4.21,-13.65,5.10,-22.05,26.4
2026/04/15 14:29:57.76,IMU,-21.00,-9.28,-1003.42,-1.11,0.69,-0.24,-12.00,5.25,-21.75,26.2
2026/04/15 14:29:57.86,IMU,-24.90,-19.04,-1027.83,0.38,-0.60,0.76,-13.65,5.10,-21.75,26.4
2026/04/15 14:29:57.96,IMU,-18.07,-19.53,-1014.16,2.88,0.75,-0.96,-13.35,5.85,-21.45,26.5
2026/04/15 14:29:58.06,IMU,-23.93,-24.41,-1016.11,1.31,1.04,2.27,-13.65,6.75,-22.35,26.4
2026/04/15 14:29:58.16,IMU,-27.34,-22.46,-1022.95,1.05,-1.16,-1.95,-12.60,5.85,-22.05,26.6
2026/04/15 14:29:58.26,IMU,-1.46,-23.44,-1023.93,-1.08,0.94,-1.02,-14.40,5.40,-22.50,26.3
2026/04/15 14:29:58.36,IMU,-29.30,-9.28,-1001.95,0.72,2.05,-1.27,-14.70,4.05,-22.65,26.4
2026/04/15 14:29:58.46,IMU,-27.34,-14.16,-1013.18,0.47,0.00,4.15,-14.10,5.40,-22.05,26.4
2026/04/15 14:29:58.56,IMU,-21.00,-25.88,-1017.58,0.31,-0.77,0.31,-13.35,5.10,-21.75,26.4
2026/04/15 14:29:58.66,IMU,-14.16,-27.83,-1017.58,2.18,0.67,-0.53,-15.15,6.90,-21.75,26.5
2026/04/15 14:29:58.76,IMU,-18.55,-4.88,-1005.37,1.62,0.15,-0.78,-12.75,6.75,-22.35,26.4
2026/04/15 14:29:58.86,IMU,-25.88,-25.88,-1017.58,-1.52,1.68,-1.72,-12.60,5.40,-22.50,26.4
2026/04/15 14:29:58.96,IMU,-18.55,-23.93,-1008.30,-0.40,-0.31,1.16,-13.95,6.00,-22.65,26.4
2026/04/15 14:29:59.06,IMU,-26.37,-24.41,-1011.23,0.50,-0.67,0.48,-13.05,4.65,-22.05,26.5
2026/04/15 14:29:59.16,IMU,-21.48,-21.48,-1013.18,-0.31,1.05,-0.89,-13.50,6.45,-20.55,25.9
2026/04/15 14:29:59.26,IMU,-19.04,-13.18,-1014.65,0.89,-2.03,2.31,-14.85,5.40,-22.80,26.3
2026/04/15 14:29:59.36,IMU,-36.62,-14.65,-1011.72,-1.38,0.42,1.42,-13.65,6.90,-21.75,26.4
2026/04/15 14:29:59.46,IMU,-11.72,-16.60,-1015.14,0.53,-0.39,-0.72,-15.00,5.55,-21.60,26.3
2026/04/15 14:29:59.56,IMU,-19.53,-37.60,-1008.79,0.25,1.76,-0.69,-13.05,5.40,-21.00,26.5
2026/04/15 14:29:59.66,IMU,-9.28,-22.95,-1007.81,-0.54,-0.04,2.96,-13.95,6.00,-21.60,26.3
2026/04/15 14:29:59.76,IMU,-19.53,-19.04,-1016.11,-0.76,1.50,-1.18,-14.40,5.85,-20.70,26.5
2026/04/15 14:29:59.86,IMU,-11.72,-15.14,-1034.18,-1.35,2.40,1.67,-14.10,4.65,-21.75,26.3
2026/04/15 14:29:59.96,IMU,-6.84,-19.04,-1009.28,1.78,1.53,0.39,-13.05,4.65,-22.05,26.3
2026/04/15 14:30:00.06,IMU,-17.58,-25.88,-1030.76,-0.06,1.40,-0.75,-13.35,5.40,-21.45,26.4
2026/04/15 14:30:00.16,IMU,-17.58,-22.95,-1012.70,0.15,2.76,0.04,-13.95,6.00,-22.65,26.4
2026/04/15 14:30:00.26,IMU,-20.51,-21.00,-1018.07,-1.02,-0.83,0.03,-13.20,5.55,-19.80,26.4
2026/04/15 14:30:00.36,IMU,-16.60,-4.39,-1011.23,0.27,0.56,0.74,-13.20,6.75,-22.35,26.4
2026/04/15 14:30:00.46,IMU,-7.32,-27.34,-1012.70,1.37,-2.18,-3.23,-13.20,5.25,-21.60,26.7
2026/04/15 14:30:00.56,IMU,-9.28,-22.95,-1020.02,-0.77,1.92,0.24,-13.65,5.10,-21.45,26.3
2026/04/15 14:30:00.66,IMU,-25.39,-18.55,-1022.46,1.79,-0.45,0.84,-14.25,4.50,-22.35,26.4
2026/04/15 14:30:00.76,IMU,-16.60,-22.46,-1005.86,-0.95,0.34,0.56,-12.75,5.55,-22.35,26.2
2026/04/15 14:30:00.86,IMU,-15.14,-19.04,-1011.72,1.05,0.20,1.00,-13.65,5.10,-22.50,26.5
2026/04/15 14:30:00.96,IMU,-16.11,-4.88,-1017.58,1.95,1.77,-1.47,-13.20,5.25,-21.15,26.3
2026/04/15 14:30:01.07,IMU,-16.11,-25.88,-1020.02,1.08,1.08,0.60,-14.70,5.55,-21.90,26.4
2026/04/15 14:30:01.17,IMU,-17.09,-19.04,-1021.48,0.44,-1.52,-0.12,-13.95,6.00,-21.15,26.2
2026/04/15 14:30:01.27,IMU,-25.88,-27.34,-1015.63,-0.23,0.08,-1.15,-13.95,4.80,-22.35,26.3
2026/04/15 14:30:01.37,IMU,-28.32,-20.02,-1024.41,0.03,0.76,-1.15,-14.70,6.00,-21.90,26.5
2026/04/15 14:30:01.47,IMU,-27.83,-30.76,-1011.72,-0.16,1.14,-0.78,-12.75,5.55,-22.35,26.3
2026/04/15 14:30:01.57,IMU,-26.37,-31.74,-1013.67,2.02,2.76,0.21,-12.75,4.05,-21.60,26.2
2026/04/15 14:30:01.67,IMU,-13.67,-20.51,-1012.21,-1.27,-0.35,-0.76,-13.65,5.40,-21.45,26.5
2026/04/15 14:30:01.77,IMU,-11.72,-22.46,-1043.95,1.28,0.44,-0.98,-14.10,5.85,-22.50,26.4
2026/04/15 14:30:01.87,IMU,-11.23,-25.88,-999.02,-0.57,-0.19,-0.66,-15.00,4.80,-22.35,26.4
2026/04/15 14:30:01.97,IMU,-8.79,-12.21,-1016.11,-0.77,-2.02,3.94,-13.65,5.40,-21.75,26.1
2026/04/15 14:30:02.07,IMU,-8.79,-24.41,-1025.88,1.42,-0.79,0.88,-13.95,5.25,-21.90,26.4
2026/04/15 14:30:02.17,IMU,-31.74,-7.81,-1015.14,0.18,1.01,-1.44,-13.50,3.75,-21.60,26.3
2026/04/15 14:30:02.27,IMU,-17.09,-10.25,-1005.37,-0.92,-0.95,0.03,-13.35,5.10,-21.75,26.3
2026/04/15 14:30:02.37,IMU,-11.23,-16.11,-1014.65,1.40,1.86,-1.89,-13.65,6.60,-21.00,26.4
2026/04/15 14:30:02.47,IMU,-24.90,-28.32,-1021.97,-0.79,2.61,0.72,-14.40,5.40,-21.45,26.4
2026/04/15 14:30:02.57,IMU,-19.04,-21.00,-1019.04,0.31,1.85,-2.37,-13.35,5.40,-21.45,26.4
2026/04/15 14:30:02.67,IMU,-25.88,-12.70,-1019.04,-1.06,0.15,1.24,-13.05,4.65,-23.25,26.4
2026/04/15 14:30:02.77,IMU,-11.23,-4.88,-1011.72,-0.10,1.74,2.35,-13.35,5.40,-22.80,26.4
2026/04/15 14:30:02.87,IMU,-25.39,-30.76,-1013.18,-0.85,2.08,-0.56,-12.75,4.80,-21.90,26.4
2026/04/15 14:30:02.97,IMU,-30.76,-7.81,-1011.23,0.21,1.79,0.97,-13.50,5.55,-20.85,26.3
2026/04/15 14:30:03.07,IMU,-22.46,-20.02,-1018.55,0.00,-0.20,-0.89,-14.85,5.40,-21.75,26.3
2026/04/15 14:30:03.17,IMU,-9.28,-29.79,-1026.86,-0.44,-0.67,-0.34,-13.35,5.10,-21.75,26.4
2026/04/15 14:30:03.27,IMU,-21.00,-18.07,-1018.55,-1.72,-2.07,-2.41,-12.45,4.80,-21.60,26.4
2026/04/15 14:30:03.37,IMU,-13.67,-21.48,-1003.42,-1.02,2.89,0.47,-14.70,7.20,-21.15,26.4
2026/04/15 14:30:03.47,IMU,-32.71,-16.11,-1013.67,1.05,1.89,-0.12,-13.95,6.45,-22.35,26.5
2026/04/15 14:30:03.57,IMU,-27.34,-21.97,-1008.30,-1.53,0.36,-0.13,-13.50,5.25,-21.15,26.4
2026/04/15 14:30:03.67,IMU,-13.18,-28.32,-1005.37,1.50,0.82,-0.92,-13.50,4.05,-21.60,26.4
2026/04/15 14:30:03.77,IMU,-18.55,-18.55,-1015.14,0.01,-2.07,2.22,-15.75,5.25,-18.30,26.5
2026/04/15 14:30:03.87,IMU,-19.53,-10.25,-1012.70,0.07,-1.05,0.81,-13.50,5.55,-22.35,26.4
2026/04/15 14:30:03.97,IMU,-14.65,-15.63,-1017.09,-0.47,1.53,1.15,-14.25,6.00,-21.60,26.4
2026/04/15 14:30:04.07,IMU,-11.23,-18.55,-1018.55,-0.79,-0.95,0.70,-13.20,6.45,-21.60,26.4
2026/04/15 14:30:04.17,IMU,-21.00,-20.51,-1006.35,0.92,-0.04,-0.33,-13.95,4.80,-21.60,26.6
2026/04/15 14:30:04.28,IMU,-31.74,-32.71,-1019.53,1.26,0.79,-1.53,-13.65,6.90,-22.05,26.5
2026/04/15 14:30:04.38,IMU,-23.44,-24.41,-1007.32,-1.45,1.31,-0.82,-13.35,5.40,-21.45,26.3
2026/04/15 14:30:04.48,IMU,-9.28,-21.00,-1017.09,0.39,-0.50,-0.01,-13.65,5.10,-21.75,26.6
2026/04/15 14:30:04.58,IMU,-27.83,-11.23,-1012.70,0.56,1.99,-1.15,-13.65,6.60,-20.70,26.4
2026/04/15 14:30:04.68,IMU,-16.11,-15.63,-1010.25,1.44,0.88,-1.24,-14.40,4.35,-21.45,26.4
2026/04/15 14:30:04.78,IMU,-8.30,-15.63,-1014.16,1.45,-0.28,-0.03,-17.25,4.05,-17.25,26.3
2026/04/15 14:30:04.88,IMU,-18.55,-11.72,-1010.74,0.41,-0.71,2.39,-13.95,5.25,-20.85,26.6
2026/04/15 14:30:04.98,IMU,-22.46,-21.48,-1018.55,0.68,1.98,-0.08,-15.15,4.65,-22.05,26.3
2026/04/15 14:30:05.08,IMU,-18.55,-10.25,-1016.11,1.17,0.52,0.52,-13.95,6.75,-21.15,26.1
2026/04/15 14:30:05.18,IMU,-15.14,-18.07,-1007.32,-0.04,-1.66,0.57,-15.00,5.55,-20.85,26.3
2026/04/15 14:30:05.28,IMU,-23.44,-18.55,-1004.88,1.11,-0.76,1.18,-14.10,6.15,-21.45,26.5
2026/04/15 14:30:05.38,IMU,-14.65,-16.11,-1032.23,0.34,2.21,-1.98,-14.25,5.55,-22.65,26.5
2026/04/15 14:30:05.48,IMU,-13.18,-28.81,-1016.11,0.41,3.31,-0.34,-15.15,5.85,-20.25,26.4
2026/04/15 14:30:05.58,IMU,-21.00,-29.30,-1019.53,0.17,0.19,-1.02,-13.65,5.40,-22.80,26.7
2026/04/15 14:30:05.68,IMU,-18.07,-17.58,-1008.79,0.66,0.79,0.73,-13.95,4.80,-21.90,26.4
2026/04/15 14:30:05.79,IMU,-22.46,-15.63,-1020.51,0.34,1.24,-2.27,-16.35,3.60,-17.10,26.3
2026/04/15 14:30:05.89,IMU,-27.34,-12.21,-1020.51,-1.36,-0.35,1.19,-13.95,4.05,-21.60,26.4
2026/04/15 14:30:05.99,IMU,-22.95,-16.11,-1011.23,1.04,-1.73,1.38,-14.40,5.85,-22.05,26.6
2026/04/15 14:30:06.09,IMU,-26.86,-36.62,-1023.44,-0.20,0.95,0.82,-12.60,5.10,-22.05,26.4
2026/04/15 14:30:06.19,IMU,-20.51,-16.60,-1026.86,-1.18,0.95,0.37,-13.05,5.10,-22.50,26.4
2026/04/15 14:30:06.29,IMU,-21.97,-26.37,-1010.25,0.80,1.47,0.00,-12.00,5.55,-22.65,26.6
2026/04/15 14:30:06.39,IMU,-19.04,-14.65,-1013.18,-0.63,0.72,-1.05,-14.25,5.25,-22.35,26.3
2026/04/15 14:30:06.49,IMU,-16.60,-21.00,-1016.11,-0.33,1.22,-1.95,-13.95,6.45,-21.60,26.3
2026/04/15 14:30:06.59,IMU,-15.63,-24.90,-1007.32,-0.44,0.60,1.34,-13.20,5.55,-21.90,26.4
2026/04/15 14:30:06.69,IMU,-23.93,-21.97,-1029.30,1.17,-0.08,-2.11,-13.65,4.65,-22.05,26.6
2026/04/15 14:30:06.79,IMU,-18.07,-15.63,-1028.32,2.22,1.66,0.34,-13.65,5.40,-21.75,26.3
2026/04/15 14:30:06.89,IMU,-14.65,-26.37,-1014.16,2.51,-0.56,-1.08,-14.25,6.45,-20.55,26.5
2026/04/15 14:30:06.99,IMU,-25.88,-18.55,-1016.11,1.62,1.47,3.21,-12.60,5.85,-22.05,26.4
2026/04/15 14:30:07.09,IMU,-14.65,-17.09,-1015.63,-1.10,0.15,-1.15,-14.85,5.85,-22.05,26.7
2026/04/15 14:30:07.19,IMU,-21.00,-30.27,-1012.70,0.47,-1.03,0.83,-14.40,5.40,-21.45,26.4
2026/04/15 14:30:07.29,IMU,-26.86,-23.93,-1013.67,-0.93,0.74,-0.22,-13.65,5.40,-22.05,26.4
2026/04/15 14:30:07.39,IMU,-21.97,-20.02,-1015.14,1.66,1.42,2.03,-13.95,6.45,-21.15,26.5
2026/04/15 14:30:07.49,IMU,-17.58,-15.63,-1020.02,1.10,-0.77,2.26,-13.65,6.15,-22.50,26.4
2026/04/15 14:30:07.59,IMU,-24.41,-25.39,-1006.35,-0.68,-0.10,-2.25,-13.65,6.15,-21.75,26.6
2026/04/15 14:30:07.69,IMU,-31.74,-18.07,-1022.46,1.04,0.79,-1.40,-14.25,6.75,-21.90,26.3
2026/04/15 14:30:07.79,IMU,-31.25,-9.77,-1014.65,0.86,0.02,0.15,-15.15,7.35,-22.80,26.3
2026/04/15 14:30:07.89,IMU,-8.30,-10.74,-1008.79,0.60,-2.23,-0.61,-13.35,5.40,-21.45,26.5
2026/04/15 14:30:08.00,IMU,-22.46,-22.46,-1015.63,0.05,0.21,1.51,-13.20,6.00,-22.65,26.4
2026/04/15 14:30:08.10,IMU,-30.76,-25.88,-1010.74,0.79,1.25,1.04,-14.10,6.15,-21.00,26.5
2026/04/15 14:30:08.20,IMU,-33.20,-26.37,-1027.83,-0.30,-1.26,-1.27,-13.20,5.55,-22.65,26.7
2026/04/15 14:30:08.30,IMU,-31.25,-20.02,-1011.23,-1.08,0.53,-0.27,-13.35,5.85,-21.75,26.3
2026/04/15 14:30:08.40,IMU,-25.39,-25.39,-1016.60,1.18,0.90,-0.59,-13.95,4.05,-22.65,26.3
2026/04/15 14:30:08.50,IMU,-27.83,-31.25,-1014.65,0.70,-1.79,-5.60,-14.10,6.60,-21.00,26.6
2026/04/15 14:30:08.60,IMU,-24.90,-12.21,-1007.81,0.10,1.07,0.57,-14.85,5.10,-22.05,26.5
2026/04/15 14:30:08.70,IMU,-16.11,-21.48,-1012.21,0.62,0.10,0.40,-13.65,6.90,-21.45,26.6
2026/04/15 14:30:08.80,IMU,-30.76,-17.09,-1006.35,0.73,-1.96,-2.93,-13.95,5.25,-21.60,26.6
2026/04/15 14:30:08.90,IMU,-20.51,-22.46,-1021.48,0.76,1.03,-1.31,-14.10,6.15,-20.70,26.6
2026/04/15 14:30:09.00,IMU,-22.95,-13.18,-1010.74,0.99,1.85,0.80,-13.20,6.00,-20.10,26.6
2026/04/15 14:30:09.10,IMU,-24.90,-20.02,-1006.35,-0.11,2.01,0.12,-13.35,5.85,-21.45,26.3
2026/04/15 14:30:09.20,IMU,-24.41,-16.60,-995.12,2.20,0.46,0.16,-14.40,5.40,-21.45,26.7
2026/04/15 14:30:09.30,IMU,-17.58,-10.25,-998.05,-1.07,-0.41,3.93,-13.95,5.55,-22.65,26.3
2026/04/15 14:30:09.40,IMU,-36.62,-16.11,-1025.39,1.02,0.80,-0.24,-14.10,6.15,-21.75,26.4
2026/04/15 14:30:09.50,IMU,-21.97,-30.76,-1021.48,-0.75,2.95,0.86,-13.35,4.35,-21.00,26.4
2026/04/15 14:30:09.60,IMU,-24.90,-23.93,-1016.11,0.00,0.57,2.93,-13.95,5.25,-21.60,26.4
2026/04/15 14:30:09.70,IMU,-29.79,-14.65,-1010.25,-0.03,-0.82,0.59,-14.40,5.10,-22.05,26.6
2026/04/15 14:30:09.80,IMU,-18.07,-12.21,-1019.53,-0.69,-0.87,2.87,-13.35,4.35,-23.25,26.2
2026/04/15 14:30:09.90,IMU,-20.51,-28.32,-1015.63,0.81,0.24,1.01,-12.60,5.10,-21.75,26.6
2026/04/15 14:30:10.00,IMU,-26.37,-18.55,-1001.95,-0.87,-0.18,-0.59,-14.10,6.60,-21.45,26.4
2026/04/15 14:30:10.10,IMU,-22.46,-23.93,-1024.90,1.61,-0.06,-0.41,-14.25,6.00,-20.85,26.4
2026/04/15 14:30:10.20,IMU,-10.25,-11.72,-1016.60,1.07,0.93,-0.45,-13.35,4.35,-21.45,26.6
2026/04/15 14:30:10.30,IMU,-23.44,-15.14,-1005.37,-0.45,2.49,1.82,-12.00,5.55,-21.90,26.4
2026/04/15 14:30:10.40,IMU,-20.02,-7.32,-1012.21,-0.69,0.79,-0.72,-13.20,6.45,-21.90,26.6
2026/04/15 14:30:10.50,IMU,-22.46,-29.79,-1006.84,1.47,1.11,0.21,-14.40,4.35,-21.75,26.4
2026/04/15 14:30:10.60,IMU,-27.34,-15.63,-1021.48,0.51,3.27,4.49,-13.95,6.00,-23.10,26.5
2026/04/15 14:30:10.70,IMU,-14.65,-21.00,-988.77,0.71,0.23,0.36,-12.75,6.45,-21.60,26.4
2026/04/15 14:30:10.80,IMU,-29.79,-21.97,-1014.65,-0.02,1.20,-1.60,-13.35,6.60,-20.25,26.5
2026/04/15 14:30:10.90,IMU,-14.16,-17.58,-1024.90,-0.14,1.76,1.64,-14.25,5.55,-22.65,26.5
2026/04/15 14:30:11.00,IMU,-36.13,-18.55,-1023.44,1.15,2.73,2.15,-12.60,5.10,-22.50,26.4
2026/04/15 14:30:11.10,IMU,-22.46,-24.90,-1010.74,0.37,0.24,-2.36,-14.40,6.15,-21.75,26.6
2026/04/15 14:30:11.20,IMU,-36.13,-24.90,-1017.58,1.53,1.61,0.92,-14.40,5.40,-21.75,26.6
2026/04/15 14:30:11.31,IMU,-20.02,-18.07,-1031.25,-0.11,0.90,0.53,-14.10,5.10,-21.75,26.6
2026/04/15 14:30:11.41,IMU,-16.11,-19.53,-1006.84,-0.13,1.47,1.93,-11.85,5.85,-22.80,26.4
2026/04/15 14:30:11.51,IMU,-8.79,-21.48,-1006.84,0.27,0.16,-1.85,-13.95,6.00,-20.85,26.6
2026/04/15 14:30:11.61,IMU,-28.81,-8.79,-1014.16,0.21,0.22,-0.17,-14.10,4.65,-22.50,26.3
2026/04/15 14:30:11.71,IMU,-16.11,-13.18,-1018.55,0.18,-0.03,0.59,-14.10,4.65,-21.75,26.4
2026/04/15 14:30:11.81,IMU,-33.20,-22.46,-1000.98,1.29,-0.49,2.42,-13.65,5.85,-21.75,26.5
2026/04/15 14:30:11.91,IMU,-21.97,-25.88,-1014.16,0.43,-2.21,0.24,-14.10,6.60,-21.75,26.6
2026/04/15 14:30:12.01,IMU,-25.88,-19.04,-1028.81,0.48,0.05,2.54,-13.35,5.85,-21.45,26.4
2026/04/15 14:30:12.11,IMU,-16.11,-15.14,-1020.02,-0.08,1.64,-0.45,-13.65,4.65,-22.50,26.3
2026/04/15 14:30:12.21,IMU,-29.30,-26.37,-1011.72,0.09,-1.23,-0.96,-13.20,4.50,-22.35,26.5
2026/04/15 14:30:12.31,IMU,-9.77,-19.04,-1006.35,2.90,0.20,-0.34,-13.65,5.10,-21.75,26.6
2026/04/15 14:30:12.41,IMU,-13.18,-33.20,-1010.25,1.22,-1.16,0.34,-14.25,5.25,-21.15,26.3
2026/04/15 14:30:12.51,IMU,-21.97,-16.11,-1008.30,0.90,0.32,0.30,-14.40,6.90,-21.00,26.4
2026/04/15 14:30:12.61,IMU,-34.67,-11.23,-1018.55,1.05,-2.85,2.01,-11.85,4.65,-21.00,26.4
2026/04/15 14:30:12.71,IMU,-23.93,-23.93,-1018.55,0.24,1.74,0.26,-13.65,5.40,-21.00,26.4
2026/04/15 14:30:12.81,IMU,-19.04,-23.93,-1009.77,0.64,1.46,1.95,-12.75,5.55,-21.90,26.6
2026/04/15 14:30:12.91,IMU,-33.20,-16.60,-1034.18,0.18,-1.15,-0.56,-13.05,5.85,-21.75,26.4
2026/04/15 14:30:13.01,IMU,-7.32,-21.00,-1000.49,0.24,1.47,-1.17,-14.25,6.00,-22.35,26.5
2026/04/15 14:30:13.11,IMU,-23.93,-25.88,-1022.46,1.88,-1.21,0.35,-13.50,5.25,-23.10,26.5
2026/04/15 14:30:13.21,IMU,-17.09,-26.86,-1004.88,1.31,0.79,-2.37,-13.20,5.55,-20.10,26.5
2026/04/15 14:30:13.31,IMU,-19.04,-11.72,-1014.16,0.31,1.67,-0.51,-13.95,6.45,-21.15,26.5
2026/04/15 14:30:13.41,IMU,-20.02,-26.37,-1007.32,0.15,-0.27,-0.83,-14.85,5.10,-20.70,26.5
2026/04/15 14:30:13.51,IMU,-27.83,-20.51,-1008.79,-1.30,-0.30,-1.92,-14.10,6.75,-22.35,26.3
2026/04/15 14:30:13.61,IMU,-21.00,-15.14,-1003.91,-0.87,2.62,-2.31,-13.35,5.10,-21.00,26.3
2026/04/15 14:30:13.71,IMU,-19.53,-15.63,-1012.70,0.85,0.11,-1.06,-13.65,6.15,-22.80,26.6
2026/04/15 14:30:13.81,IMU,-7.81,-9.77,-1029.30,-0.69,-2.24,-0.08,-14.25,5.55,-23.10,26.5
2026/04/15 14:30:13.91,IMU,-22.46,-28.32,-1005.86,2.10,0.85,-0.94,-13.65,5.40,-22.50,26.4
2026/04/15 14:30:14.01,IMU,-25.88,-10.25,-1018.55,1.41,-0.06,1.88,-13.35,4.65,-22.05,26.6
2026/04/15 14:30:14.11,IMU,-18.07,-27.34,-1021.97,-1.31,2.04,-0.99,-13.35,5.85,-22.05,26.3
2026/04/15 14:30:14.21,IMU,-28.32,-18.07,-1024.90,1.08,0.98,-1.72,-13.65,4.65,-23.25,26.5
2026/04/15 14:30:14.31,IMU,-23.44,-21.97,-1012.21,-0.16,-0.53,-2.69,-12.75,5.25,-21.60,26.5
2026/04/15 14:30:14.42,IMU,-27.34,-16.60,-1030.76,0.63,-1.58,-1.35,-14.25,6.45,-21.60,26.5
2026/04/15 14:30:14.52,IMU,-19.04,-19.53,-1016.60,-1.01,1.94,-1.76,-13.05,4.65,-21.75,26.3
2026/04/15 14:30:14.62,IMU,-20.51,-24.41,-1020.51,1.21,0.11,3.40,-14.10,6.90,-21.00,26.4
2026/04/15 14:30:14.72,IMU,-17.09,-20.51,-1022.95,1.97,-1.13,-0.56,-13.05,5.40,-22.50,26.4
2026/04/15 14:30:14.82,IMU,-9.28,-15.63,-1014.65,0.17,1.44,-3.31,-13.95,5.25,-22.35,26.4
2026/04/15 14:30:14.92,IMU,-13.67,-17.58,-1016.11,0.55,0.04,0.84,-12.75,2.25,-19.05,26.5
2026/04/15 14:30:15.02,IMU,-21.97,-22.46,-999.51,1.78,-0.69,2.86,-12.60,7.35,-21.75,26.4
2026/04/15 14:30:15.12,IMU,-16.60,-15.63,-1022.46,-0.54,0.21,4.16,-13.20,5.25,-22.65,26.6
2026/04/15 14:30:15.22,IMU,-35.16,-21.97,-996.58,2.05,1.41,-0.58,-13.65,5.40,-21.45,26.5
2026/04/15 14:30:15.32,IMU,-26.86,-16.60,-1013.67,1.17,-0.14,1.09,-12.60,6.15,-22.05,26.4
2026/04/15 14:30:15.42,IMU,-24.41,-19.04,-1016.11,-0.27,0.32,-0.73,-13.50,5.25,-21.15,26.4
2026/04/15 14:30:15.53,IMU,-21.97,-22.95,-1017.58,-0.50,-1.16,-0.68,-14.85,5.85,-20.70,26.6
2026/04/15 14:30:15.63,IMU,-37.11,-17.09,-1016.60,1.22,-0.08,-1.80,-13.95,4.80,-21.15,26.4
2026/04/15 14:30:15.73,IMU,-21.48,-17.58,-1026.37,0.27,0.09,3.57,-13.95,4.50,-21.90,26.4
2026/04/15 14:30:15.83,IMU,-11.23,-26.37,-1018.55,-0.65,-0.40,1.53,-13.05,4.35,-22.05,26.7
2026/04/15 14:30:15.93,IMU,-22.95,-11.23,-1014.65,0.66,0.28,-1.76,-14.70,4.50,-21.90,26.6
2026/04/15 14:30:16.03,IMU,-27.34,-29.30,-1008.30,-0.21,0.06,-2.43,-14.70,6.00,-20.85,26.6
2026/04/15 14:30:16.13,IMU,-22.46,-20.51,-1014.16,-1.60,-0.65,1.04,-13.05,6.15,-20.70,26.3
2026/04/15 14:30:16.23,IMU,-19.04,-15.14,-1014.16,1.50,1.60,1.84,-14.85,6.15,-21.45,26.4
2026/04/15 14:30:16.33,IMU,-23.44,-19.04,-1010.74,0.25,0.10,-0.41,-15.15,6.15,-21.45,26.5
2026/04/15 14:30:16.43,IMU,-36.13,-22.46,-1008.30,0.76,-1.96,2.77,-12.75,5.55,-21.15,26.3
2026/04/15 14:30:16.53,IMU,-21.48,-17.09,-1016.11,-0.11,1.22,-2.54,-13.20,6.00,-22.35,26.6
2026/04/15 14:30:16.63,IMU,-29.30,-20.02,-1011.72,1.21,0.86,-0.46,-15.15,6.90,-22.50,26.4
2026/04/15 14:30:16.73,IMU,-14.65,-13.67,-1021.00,-0.23,-0.90,0.00,-15.00,5.25,-21.60,26.6
2026/04/15 14:30:16.83,IMU,-25.39,-25.88,-1017.09,0.24,-1.83,-0.15,-14.10,6.15,-21.75,26.7
2026/04/15 14:30:16.93,IMU,-32.71,-19.53,-1015.14,1.89,0.55,-1.03,-14.85,5.85,-22.05,26.4
2026/04/15 14:30:17.03,IMU,-39.06,-23.93,-1021.97,-0.36,-2.33,-3.18,-14.25,5.25,-21.90,26.5
2026/04/15 14:30:17.13,IMU,-16.11,-27.34,-1011.72,0.17,0.21,-0.59,-13.95,5.55,-21.15,26.4
2026/04/15 14:30:17.23,IMU,-18.55,-15.63,-1009.28,0.84,0.23,2.44,-14.10,5.85,-21.75,26.5
2026/04/15 14:30:17.33,IMU,-25.39,-20.51,-1009.77,1.14,-0.05,-1.77,-14.25,7.20,-21.90,26.6
2026/04/15 14:30:17.43,IMU,-4.88,-17.09,-1026.86,0.17,-1.52,-2.51,-13.65,5.85,-22.80,26.7
2026/04/15 14:30:17.53,IMU,-9.28,-21.48,-1014.65,-1.14,1.18,0.82,-13.50,3.75,-21.90,26.5
2026/04/15 14:30:17.63,IMU,-21.48,-24.90,-1019.04,-0.65,-1.15,-0.82,-13.35,4.65,-22.80,26.7
2026/04/15 14:30:17.73,IMU,-23.93,-16.60,-1013.67,1.63,0.10,-0.31,-14.10,5.10,-21.45,26.6
2026/04/15 14:30:17.83,IMU,-30.76,-14.16,-1014.16,-1.26,2.36,-2.49,-14.10,5.85,-22.80,26.4
2026/04/15 14:30:17.93,IMU,-32.71,-7.32,-1013.18,1.35,0.56,0.74,-14.10,4.65,-21.45,26.5
2026/04/15 14:30:18.03,IMU,-26.86,-20.51,-1018.07,0.03,-0.24,0.74,-13.20,5.55,-21.15,26.4
2026/04/15 14:30:18.13,IMU,-21.97,-24.90,-1013.67,0.69,-1.97,-1.60,-13.65,5.10,-22.50,26.6
2026/04/15 14:30:18.23,IMU,-23.44,-16.60,-1008.79,-0.90,1.15,-2.37,-13.35,6.15,-21.00,26.4
2026/04/15 14:30:18.33,IMU,-9.28,-21.97,-1020.02,0.07,1.89,-0.20,-14.25,6.00,-21.90,26.5
2026/04/15 14:30:18.43,IMU,-27.83,-13.67,-1008.30,0.42,1.73,-1.39,-14.25,5.25,-21.15,26.6
2026/04/15 14:30:18.53,IMU,-24.41,-31.74,-988.77,0.37,0.91,0.00,-13.95,7.20,-21.15,26.4
2026/04/15 14:30:18.63,IMU,-12.70,-13.18,-998.05,0.30,0.05,1.30,-14.25,5.55,-22.35,26.6
2026/04/15 14:30:18.74,IMU,-23.93,-23.44,-1014.65,0.72,-0.30,0.05,-15.00,4.50,-21.60,26.3
2026/04/15 14:30:18.84,IMU,-21.48,-18.07,-1013.18,-0.34,-0.18,0.76,-13.65,6.15,-21.45,26.4
2026/04/15 14:30:18.94,IMU,-15.63,-18.07,-1003.42,1.14,0.28,1.13,-13.65,5.40,-21.00,26.4
2026/04/15 14:30:19.04,IMU,-10.25,-13.18,-1007.81,1.03,1.89,-0.98,-14.10,5.85,-21.45,26.8
2026/04/15 14:30:19.14,IMU,-29.79,-22.95,-1020.51,-0.08,-0.46,-0.01,-13.35,5.85,-19.95,26.4
2026/04/15 14:30:19.24,IMU,-29.79,-17.09,-1013.67,0.82,0.47,-0.27,-13.65,5.10,-21.00,26.4
2026/04/15 14:30:19.34,IMU,-15.14,-20.51,-1016.11,1.26,-0.22,0.09,-14.85,6.15,-22.80,26.5
2026/04/15 14:30:19.44,IMU,-20.51,-22.46,-1010.74,0.05,0.47,-0.13,-13.50,4.80,-22.35,26.4
2026/04/15 14:30:19.54,IMU,-28.32,-11.23,-1012.70,1.30,-1.73,1.20,-14.10,6.15,-21.75,26.5
2026/04/15 14:30:19.64,IMU,-21.97,-6.84,-1014.16,1.05,0.00,0.08,-14.25,4.50,-21.60,26.6
2026/04/15 14:30:19.74,IMU,-17.58,-22.95,-1018.07,0.86,0.37,-0.64,-13.95,4.80,-21.60,26.6
2026/04/15 14:30:19.84,IMU,-17.09,-19.04,-1017.09,0.42,0.56,-0.98,-14.10,6.60,-22.50,26.3
2026/04/15 14:30:19.94,IMU,-23.93,-24.90,-1021.48,-0.39,1.13,-0.62,-13.05,5.40,-22.50,26.5
2026/04/15 14:30:20.04,IMU,-32.23,-20.02,-1011.23,1.34,0.87,0.66,-13.20,6.45,-21.15,26.5
2026/04/15 14:30:20.14,IMU,-15.63,-20.02,-1032.71,0.46,1.25,2.74,-14.25,5.25,-21.15,26.5
2026/04/15 14:30:20.24,IMU,-6.84,-27.83,-1009.28,4.23,1.42,-0.38,-13.65,5.85,-22.50,26.4
2026/04/15 14:30:20.34,IMU,-19.04,-21.48,-1025.39,1.18,-1.13,2.85,-13.65,5.85,-21.75,26.6
2026/04/15 14:30:20.44,IMU,-21.00,-12.21,-1015.63,-0.60,2.65,2.87,-13.50,6.00,-22.65,26.6
2026/04/15 14:30:20.54,IMU,-20.51,-27.34,-1028.32,1.35,0.02,0.46,-14.10,4.65,-21.00,26.4
2026/04/15 14:30:20.64,IMU,-29.79,-23.44,-1011.23,-1.99,1.95,0.23,-14.70,6.00,-22.35,26.6
2026/04/15 14:30:20.74,IMU,-22.95,-26.86,-1019.53,-1.33,0.33,-0.33,-14.70,5.25,-20.10,26.6
2026/04/15 14:30:20.84,IMU,-16.60,-12.70,-1017.09,0.15,3.03,3.43,-13.50,6.00,-20.85,26.7
2026/04/15 14:30:20.94,IMU,-14.65,-22.95,-1009.28,-0.02,-1.02,-1.73,-13.50,5.55,-22.65,26.6
2026/04/15 14:30:21.04,IMU,-29.30,-8.79,-1018.55,1.85,-0.78,1.05,-14.70,5.55,-22.65,26.7
2026/04/15 14:30:21.14,IMU,-31.74,-23.44,-1018.07,1.23,0.00,1.66,-13.95,4.50,-21.60,26.4
2026/04/15 14:30:21.24,IMU,-26.37,-22.95,-1027.83,1.01,-0.58,1.83,-13.20,7.20,-22.35,26.4
2026/04/15 14:30:21.34,IMU,-34.67,-22.95,-1013.67,0.29,-0.68,-1.31,-14.85,5.10,-20.70,26.4
2026/04/15 14:30:21.44,IMU,-18.55,-28.32,-1006.84,0.94,-0.88,-1.79,-13.50,5.25,-22.35,26.6
2026/04/15 14:30:21.54,IMU,-19.04,-29.79,-1002.93,1.37,-0.50,1.56,-13.95,5.25,-21.15,26.6
2026/04/15 14:30:21.64,IMU,-27.34,-5.86,-1016.60,-0.11,3.27,2.53,-13.95,5.25,-21.15,26.6
2026/04/15 14:30:21.75,IMU,-18.07,-20.02,-1006.35,1.07,1.60,0.68,-14.70,3.30,-21.90,26.6
2026/04/15 14:30:21.85,IMU,-20.51,-27.83,-1007.32,0.98,-0.36,1.73,-12.75,4.80,-21.90,26.5
2026/04/15 14:30:21.95,IMU,-16.11,-11.23,-1012.21,-1.31,0.35,-1.34,-14.40,5.10,-21.75,26.4
2026/04/15 14:30:22.05,IMU,-8.79,-12.21,-1010.25,0.04,0.34,-1.66,-16.80,5.25,-17.55,26.6
2026/04/15 14:30:22.15,IMU,-20.02,-17.09,-1010.25,0.73,-1.29,-0.64,-14.10,5.10,-22.50,26.4
2026/04/15 14:30:22.25,IMU,-27.34,-21.48,-1008.30,0.26,0.96,-1.64,-13.20,5.55,-20.85,26.4
2026/04/15 14:30:22.35,IMU,-15.14,-15.63,-1010.74,1.20,-1.15,1.09,-14.25,4.05,-21.60,26.5
2026/04/15 14:30:22.45,IMU,-27.34,-14.16,-1017.58,-0.94,0.13,-0.66,-13.05,5.85,-22.05,26.4
2026/04/15 14:30:22.55,IMU,-29.30,-15.63,-1011.23,-0.17,1.00,-2.17,-13.20,5.55,-21.60,26.7
2026/04/15 14:30:22.65,IMU,-16.11,-12.21,-1011.23,-0.50,1.01,1.78,-13.95,6.75,-22.35,26.6
2026/04/15 14:30:22.75,IMU,-33.20,-22.46,-1024.41,1.33,2.87,-3.21,-13.65,5.85,-22.50,26.5
2026/04/15 14:30:22.85,IMU,-26.37,-16.11,-1017.09,1.98,2.80,4.18,-13.20,5.55,-22.35,26.6
2026/04/15 14:30:22.95,IMU,-12.21,-12.70,-1014.16,0.10,-0.76,-0.95,-14.10,5.40,-21.45,26.5
2026/04/15 14:30:23.05,IMU,-15.63,-30.76,-997.07,-1.16,1.53,-1.88,-17.55,4.80,-16.95,26.6
2026/04/15 14:30:23.15,IMU,-26.86,-16.11,-1018.55,0.28,1.12,-0.80,-13.35,5.85,-21.45,26.5
2026/04/15 14:30:23.25,IMU,-16.11,-18.55,-1009.77,0.37,-0.10,-1.17,-14.85,6.15,-21.75,26.5
2026/04/15 14:30:23.35,IMU,-18.55,-17.58,-1026.86,2.04,-1.96,2.15,-13.05,4.65,-20.70,26.4
2026/04/15 14:30:23.45,IMU,-23.44,-22.46,-1017.58,0.36,1.09,-3.58,-13.95,5.25,-21.15,26.6
2026/04/15 14:30:23.55,IMU,-19.04,-21.48,-1016.11,1.11,-0.53,0.00,-13.05,4.65,-22.05,26.4
2026/04/15 14:30:23.65,IMU,-18.55,-17.09,-1002.44,-1.07,2.82,-2.21,-13.35,5.85,-21.45,26.4
2026/04/15 14:30:23.75,IMU,-40.53,-22.95,-1014.65,-1.23,0.31,1.36,-13.95,6.00,-20.85,26.6
2026/04/15 14:30:23.85,IMU,-13.18,-26.37,-1009.28,1.43,-0.66,0.21,-13.05,6.90,-21.75,26.8
2026/04/15 14:30:23.95,IMU,-29.79,-15.63,-1011.23,1.82,0.50,-2.47,-14.25,5.55,-21.15,26.5
2026/04/15 14:30:24.06,IMU,-25.88,-25.39,-1012.21,0.23,1.05,-0.03,-15.00,5.55,-21.60,26.7
2026/04/15 14:30:24.16,IMU,-16.60,-20.02,-997.56,0.56,-1.62,-0.29,-13.35,5.85,-20.25,26.6
2026/04/15 14:30:24.26,IMU,-15.14,-15.14,-1024.90,-0.11,1.12,1.69,-13.50,5.25,-23.10,26.6
2026/04/15 14:30:24.36,IMU,-25.88,-25.88,-1012.21,-1.21,-0.81,1.27,-13.50,6.00,-21.15,26.6
2026/04/15 14:30:24.46,IMU,-16.11,-26.86,-1014.16,0.24,-0.86,1.70,-14.25,5.55,-21.60,26.6
2026/04/15 14:30:24.56,IMU,-32.23,-18.07,-1010.74,-0.89,0.31,-0.76,-13.50,6.00,-21.15,26.7
2026/04/15 14:30:24.66,IMU,-26.37,-23.44,-1007.32,-0.66,1.25,-0.58,-13.95,4.80,-21.90,26.4
2026/04/15 14:30:24.76,IMU,-24.90,-25.39,-1011.72,0.95,1.63,0.83,-13.20,6.45,-22.35,26.3
2026/04/15 14:30:24.86,IMU,-29.30,-18.55,-1024.41,1.22,0.40,-0.53,-13.35,5.85,-21.45,26.4
2026/04/15 14:30:24.96,IMU,-10.25,-17.09,-1012.21,-2.32,1.76,4.62,-14.10,5.85,-21.75,26.4
2026/04/15 14:30:25.06,IMU,-16.60,-15.14,-1009.28,0.83,2.61,-1.04,-13.50,5.25,-22.35,26.5
2026/04/15 14:30:25.16,IMU,-20.02,-30.76,-1004.88,-0.37,1.40,-2.56,-13.50,4.80,-20.85,26.4
2026/04/15 14:30:25.26,IMU,-41.99,-21.00,-1013.18,0.83,0.10,0.26,-13.95,6.00,-20.10,26.4
2026/04/15 14:30:25.36,IMU,-8.79,-22.95,-1010.25,0.82,-0.53,-1.12,-13.95,6.75,-21.15,26.4
2026/04/15 14:30:25.46,IMU,-22.46,-14.65,-1027.83,-0.79,-2.05,0.65,-15.45,7.50,-22.35,26.5
2026/04/15 14:30:25.57,IMU,-15.63,-18.55,-1013.18,3.60,-1.00,-1.68,-14.85,5.85,-21.00,26.7
2026/04/15 14:30:25.67,IMU,-21.48,-13.18,-1009.77,-0.44,-2.02,0.03,-14.10,6.60,-21.45,26.6
2026/04/15 14:30:25.77,IMU,-16.11,-6.84,-1018.55,-0.03,0.11,-1.47,-14.40,5.85,-22.80,26.6
2026/04/15 14:30:25.87,IMU,-32.23,-7.81,-1014.65,0.79,-0.37,-0.12,-16.05,5.55,-20.55,26.4
2026/04/15 14:30:25.97,IMU,-22.46,-24.90,-1014.65,-0.95,1.02,-0.27,-13.35,5.85,-20.70,26.7
2026/04/15 14:30:26.07,IMU,-15.14,-14.65,-1017.09,1.90,-0.52,0.32,-13.50,5.25,-21.90,26.3
2026/04/15 14:30:26.17,IMU,-14.65,-11.72,-1013.67,-0.46,-1.00,-1.81,-13.50,6.00,-20.85,26.6
2026/04/15 14:30:26.27,IMU,-7.81,-11.72,-1021.00,0.38,0.44,-1.49,-14.25,6.00,-22.35,26.3
2026/04/15 14:30:26.37,IMU,-26.86,-13.18,-1022.46,-0.30,1.18,-0.27,-13.20,6.00,-21.90,26.8
2026/04/15 14:30:26.47,IMU,-31.25,-25.88,-1005.86,-0.01,0.67,1.32,-13.50,5.55,-21.15,26.5
2026/04/15 14:30:26.57,IMU,-23.44,-24.41,-1006.35,1.08,-1.25,-2.05,-15.15,6.15,-21.75,26.4
2026/04/15 14:30:26.67,IMU,-23.93,-14.65,-1017.58,0.38,1.31,-2.07,-13.95,4.50,-21.60,26.5
2026/04/15 14:30:26.77,IMU,-3.42,-23.93,-1008.79,1.62,1.50,0.13,-13.20,6.45,-21.15,26.5
2026/04/15 14:30:26.87,IMU,-11.72,-24.41,-1019.04,0.81,0.19,-0.61,-13.65,5.40,-21.00,26.5
2026/04/15 14:30:26.97,IMU,-23.93,-9.28,-1010.25,1.25,-0.19,0.66,-13.95,5.25,-21.60,26.4
2026/04/15 14:30:27.07,IMU,-12.70,-23.93,-1018.07,-0.26,1.10,4.82,-14.10,4.65,-21.00,26.5
2026/04/15 14:30:27.17,IMU,-11.72,-19.53,-1027.34,0.24,3.05,3.11,-13.05,6.15,-22.05,26.8
2026/04/15 14:30:27.27,IMU,-14.16,-15.14,-1015.63,-0.20,-0.50,0.47,-13.65,6.90,-22.50,26.6
2026/04/15 14:30:27.37,IMU,-0.98,-4.39,-1008.30,0.61,-0.65,1.68,-14.10,5.40,-22.05,26.4
2026/04/15 14:30:27.47,IMU,-8.79,-18.55,-1015.14,-0.15,2.69,-0.94,-14.10,5.10,-21.00,26.4
2026/04/15 14:30:27.57,IMU,-20.51,-15.63,-1013.18,-0.28,2.15,-1.13,-14.10,5.40,-22.05,26.7
2026/04/15 14:30:27.67,IMU,-5.37,-18.55,-1013.18,-0.03,1.28,-1.38,-13.35,4.35,-21.45,26.4
2026/04/15 14:30:27.77,IMU,-6.84,-28.32,-1015.63,0.40,0.76,-1.15,-13.95,5.55,-21.60,26.7
2026/04/15 14:30:27.87,IMU,-16.11,-28.32,-1008.30,-0.53,1.34,-2.06,-13.35,5.10,-21.00,26.6
2026/04/15 14:30:27.97,IMU,-17.58,-29.79,-1018.07,0.71,0.15,0.60,-14.10,5.85,-20.70,26.6
2026/04/15 14:30:28.07,IMU,-24.41,-22.95,-1021.97,0.47,0.48,1.17,-14.25,5.25,-21.15,26.7
2026/04/15 14:30:28.17,IMU,-29.79,-20.02,-1008.79,1.53,-0.12,-0.40,-13.65,4.65,-21.75,26.4
2026/04/15 14:30:28.27,IMU,-17.09,-22.95,-1006.84,0.11,1.37,-0.24,-13.05,4.65,-22.05,26.8
2026/04/15 14:30:28.37,IMU,-31.74,-14.65,-1013.67,1.31,2.75,-1.21,-14.10,5.10,-20.70,26.5
2026/04/15 14:30:28.47,IMU,-9.28,-29.79,-1009.77,-0.76,0.25,0.27,-11.85,5.10,-22.05,26.7
2026/04/15 14:30:28.57,IMU,-15.63,-12.70,-1016.60,-0.05,2.22,-1.24,-12.75,5.25,-21.90,26.7
2026/04/15 14:30:28.67,IMU,-16.11,-18.07,-1019.04,0.60,2.18,-2.11,-13.20,5.55,-20.55,26.7
2026/04/15 14:30:28.78,IMU,-25.88,-16.60,-1009.28,-0.02,-0.68,-1.50,-14.40,4.65,-21.00,26.8
2026/04/15 14:30:28.88,IMU,-22.46,-21.48,-1027.34,-0.24,-0.95,1.39,-13.95,5.25,-21.15,26.3
2026/04/15 14:30:28.98,IMU,-24.41,-26.37,-1018.55,0.75,-0.15,0.93,-12.30,5.85,-21.75,26.7
2026/04/15 14:30:29.08,IMU,-29.79,-29.30,-1024.41,0.39,-0.89,-1.84,-15.00,6.45,-19.80,26.7
2026/04/15 14:30:29.18,IMU,-13.67,-17.09,-1012.70,0.48,-0.53,-0.54,-13.95,5.25,-20.55,26.6
2026/04/15 14:30:29.28,IMU,-12.21,-21.00,-1014.65,-1.15,0.74,-0.53,-13.95,5.55,-22.35,26.4
2026/04/15 14:30:29.38,IMU,-20.02,-21.97,-1011.23,1.44,1.28,1.41,-12.60,5.40,-21.45,26.7
2026/04/15 14:30:29.48,IMU,-19.53,-21.00,-1009.77,-1.49,0.26,-1.32,-14.10,5.85,-22.80,26.7
2026/04/15 14:30:29.58,IMU,-12.21,-14.16,-1026.37,-0.13,-1.15,-0.05,-12.75,4.50,-20.85,26.6
2026/04/15 14:30:29.68,IMU,-22.95,-10.74,-1013.18,0.74,-1.35,0.06,-13.95,4.80,-21.60,26.6
2026/04/15 14:30:29.78,IMU,-22.46,-30.27,-1010.74,1.48,1.07,-3.55,-13.50,4.80,-21.90,26.3
2026/04/15 14:30:29.88,IMU,-11.72,-15.14,-1021.00,-0.50,1.71,-4.92,-14.70,5.25,-21.90,26.6
2026/04/15 14:30:29.98,IMU,-33.20,-21.97,-1003.91,1.25,0.88,0.53,-13.65,6.60,-20.25,26.3
2026/04/15 14:30:30.08,IMU,-22.46,-25.39,-1010.25,-0.40,2.57,-1.76,-13.95,5.55,-23.10,26.5
2026/04/15 14:30:30.18,IMU,-11.72,-14.65,-1009.28,-0.02,0.56,-0.12,-16.50,3.75,-18.75,26.6
2026/04/15 14:30:30.28,IMU,-28.81,-20.02,-1010.74,1.46,0.93,-0.09,-14.85,6.15,-21.45,26.4
2026/04/15 14:30:30.38,IMU,-38.09,-20.51,-1001.46,-2.56,0.79,-1.31,-15.45,6.00,-20.85,26.7
2026/04/15 14:30:30.48,IMU,-23.44,-20.02,-1010.74,0.92,1.49,0.26,-13.95,5.25,-21.90,26.5
2026/04/15 14:30:30.58,IMU,-21.97,-20.51,-1007.81,1.08,0.60,-3.40,-14.25,5.55,-21.90,26.4
2026/04/15 14:30:30.68,IMU,-28.81,-26.86,-1007.32,0.90,1.14,0.57,-14.40,5.10,-20.25,26.3
2026/04/15 14:30:30.78,IMU,-32.23,-8.79,-1012.70,-0.37,-0.06,2.17,-13.20,5.55,-21.60,26.7
2026/04/15 14:30:30.88,IMU,-31.25,-24.90,-1014.16,-0.38,-0.68,0.21,-13.05,5.85,-21.75,26.4
2026/04/15 14:30:30.98,IMU,-17.09,-23.44,-1015.14,0.75,0.09,-3.28,-14.70,4.50,-21.60,26.5
2026/04/15 14:30:31.08,IMU,-16.60,-17.09,-1016.11,0.29,1.36,1.79,-13.65,5.10,-21.45,26.4
2026/04/15 14:30:31.18,IMU,-18.55,-19.53,-1027.83,1.34,2.24,0.18,-15.00,1.80,-18.75,26.4
2026/04/15 14:30:31.28,IMU,-11.72,-15.63,-1035.16,-1.18,0.81,-1.06,-13.65,6.60,-22.50,26.4
2026/04/15 14:30:31.38,IMU,-17.09,-21.97,-1011.72,-0.60,-0.18,0.16,-12.75,6.00,-23.10,26.4
2026/04/15 14:30:31.48,IMU,-39.55,-47.36,-1041.99,1.69,0.39,2.92,-12.75,4.80,-22.65,26.6
2026/04/15 14:30:31.58,IMU,-35.16,-45.90,-1001.95,1.63,0.65,0.15,-14.40,5.40,-21.75,26.4
2026/04/15 14:30:31.68,IMU,-21.97,-14.16,-1015.14,0.18,-1.11,1.04,-14.85,6.60,-21.45,26.6
2026/04/15 14:30:31.78,IMU,-24.41,-16.11,-1019.04,0.69,-0.60,-1.17,-12.75,5.55,-20.85,26.5
2026/04/15 14:30:31.89,IMU,-10.25,-17.09,-1018.07,3.18,0.11,-0.76,-15.45,6.00,-21.90,26.5
2026/04/15 14:30:31.99,IMU,-22.46,-19.04,-1002.44,0.24,-0.28,0.01,-13.50,5.55,-21.60,26.4
2026/04/15 14:30:32.09,IMU,-17.09,-10.25,-1021.00,-0.02,-0.66,-2.43,-14.25,5.25,-21.90,26.5
2026/04/15 14:30:32.19,IMU,-32.71,-17.09,-1009.77,0.45,1.34,-0.74,-13.35,4.65,-21.75,26.4
2026/04/15 14:30:32.29,IMU,-13.67,-13.18,-1010.74,-0.89,0.92,-2.05,-14.25,6.75,-22.35,26.7
2026/04/15 14:30:32.39,IMU,-15.63,-20.02,-1015.63,-0.04,0.34,-0.49,-13.65,4.35,-21.00,26.7
2026/04/15 14:30:32.49,IMU,-16.60,-18.07,-1011.23,1.60,2.40,2.48,-14.10,5.85,-21.45,26.5
2026/04/15 14:30:32.59,IMU,-28.81,-30.27,-1008.30,0.33,2.24,-1.58,-13.95,6.00,-20.85,26.8
2026/04/15 14:30:32.69,IMU,-28.81,-19.04,-1013.67,0.28,-0.48,2.04,-15.75,3.30,-21.15,26.5
2026/04/15 14:30:32.79,IMU,-19.04,-5.86,-1000.98,-1.10,2.00,0.68,-13.05,6.15,-22.80,26.6
2026/04/15 14:30:32.89,IMU,-33.69,-21.48,-1023.93,1.50,-1.44,-1.57,-14.25,5.25,-21.60,26.4
2026/04/15 14:30:32.99,IMU,-15.63,-16.60,-1011.72,1.33,-0.35,-2.82,-15.00,5.55,-21.15,26.6
2026/04/15 14:30:33.09,IMU,-21.00,-21.00,-1008.30,0.47,1.94,-1.70,-13.35,5.10,-22.05,26.5
2026/04/15 14:30:33.19,IMU,-11.23,-11.72,-1014.65,0.41,0.64,2.55,-14.70,4.50,-20.55,26.8
2026/04/15 14:30:33.29,IMU,-21.00,-16.11,-1008.79,-0.55,0.43,1.64,-13.35,5.40,-21.75,26.4
2026/04/15 14:30:33.39,IMU,-27.34,-10.25,-1006.84,0.40,-0.35,-0.63,-13.95,6.00,-20.85,26.8
2026/04/15 14:30:33.49,IMU,-21.00,-24.41,-1010.74,-0.39,1.24,1.78,-15.00,5.25,-21.90,26.7
2026/04/15 14:30:33.59,IMU,-9.77,-16.60,-1022.46,0.44,0.99,-1.44,-13.50,6.00,-21.60,26.8
2026/04/15 14:30:33.69,IMU,-13.67,-21.00,-1012.21,-0.03,-0.47,1.85,-13.35,4.35,-22.50,26.8
2026/04/15 14:30:33.79,IMU,-27.34,-22.95,-1004.88,-2.16,0.51,1.31,-13.50,6.00,-21.15,26.4
2026/04/15 14:30:33.89,IMU,-23.44,-29.79,-1020.51,2.47,0.73,0.82,-13.20,5.55,-21.60,26.5
2026/04/15 14:30:33.99,IMU,-19.04,-13.67,-1013.67,-0.23,-1.11,-2.60,-13.35,4.65,-22.05,26.7
2026/04/15 14:30:34.09,IMU,-16.60,-23.93,-1014.16,2.40,0.88,0.90,-12.30,5.40,-21.45,26.7
2026/04/15 14:30:34.19,IMU,-13.18,-24.90,-1017.58,-0.25,0.46,4.09,-12.30,4.65,-23.25,26.7
2026/04/15 14:30:34.29,IMU,-21.97,-27.83,-1005.37,-1.34,1.32,1.28,-13.20,4.50,-22.35,26.6
2026/04/15 14:30:34.39,IMU,-16.60,-16.11,-1013.18,-0.44,-0.34,-0.67,-14.10,5.10,-21.75,26.4
2026/04/15 14:30:34.49,IMU,-34.18,-15.14,-1019.53,-1.80,-0.53,3.15,-13.35,4.35,-21.75,26.5
2026/04/15 14:30:34.59,IMU,-24.90,-28.81,-1000.00,-0.72,0.10,-0.01,-13.35,5.40,-22.50,26.5
2026/04/15 14:30:34.69,IMU,-25.39,-12.70,-1006.84,-2.00,1.73,-0.56,-13.35,4.65,-21.00,26.8
2026/04/15 14:30:34.79,IMU,-17.09,-31.74,-1011.23,-1.17,2.28,-3.36,-12.75,6.45,-20.85,26.5
2026/04/15 14:30:34.89,IMU,-14.16,-28.32,-858.89,1.10,4.20,0.57,-13.05,5.10,-22.50,26.7
2026/04/15 14:30:35.00,IMU,-38.09,-2.93,-1056.64,0.43,1.15,2.39,-13.35,5.40,-22.05,26.7
2026/04/15 14:30:35.10,IMU,-21.48,-27.83,-979.98,2.15,1.67,2.93,-14.70,6.45,-20.55,26.5
2026/04/15 14:30:35.20,IMU,-32.23,-26.37,-1042.97,0.40,1.86,0.66,-14.40,5.85,-23.25,26.6
2026/04/15 14:30:35.30,IMU,-25.88,-20.02,-997.56,0.10,0.85,-0.66,-14.40,6.90,-21.00,26.6
2026/04/15 14:30:35.40,IMU,-26.37,-15.14,-1016.60,2.53,1.37,3.16,-13.65,6.15,-21.75,26.7
2026/04/15 14:30:35.50,IMU,-17.58,-23.93,-1024.90,-0.98,-0.58,-0.25,-13.65,5.40,-21.75,26.6
2026/04/15 14:30:35.60,IMU,-12.70,-26.37,-1012.70,-1.04,0.61,-1.15,-13.35,3.90,-22.80,26.4
2026/04/15 14:30:35.70,IMU,-18.07,-32.23,-1001.95,-0.49,1.31,-1.92,-13.35,4.65,-21.75,26.8
2026/04/15 14:30:35.80,IMU,-14.65,-15.63,-1016.60,0.46,1.28,0.59,-14.40,5.85,-21.45,26.3
2026/04/15 14:30:35.90,IMU,-2.93,-23.93,-1015.63,0.69,1.89,1.72,-13.05,5.40,-22.05,26.7
2026/04/15 14:30:36.00,IMU,-23.93,-13.67,-1015.63,1.73,-0.05,0.11,-12.75,4.50,-21.60,26.7
2026/04/15 14:30:36.10,IMU,-12.21,-15.63,-1008.30,-0.68,1.79,1.04,-13.05,4.65,-21.45,26.8
2026/04/15 14:30:36.20,IMU,-33.20,-26.37,-1021.97,1.25,0.94,0.58,-13.35,6.90,-21.00,26.6
2026/04/15 14:30:36.30,IMU,-16.11,-20.51,-1010.25,0.35,-1.10,3.53,-14.10,5.40,-19.95,26.6
2026/04/15 14:30:36.40,IMU,-28.32,-22.46,-1015.63,0.97,1.96,1.68,-13.05,6.15,-20.70,26.6
2026/04/15 14:30:36.50,IMU,-12.21,-23.93,-1012.70,-1.89,-0.58,1.56,-13.50,5.55,-21.15,26.5
2026/04/15 14:30:36.60,IMU,-18.07,-22.46,-1018.07,0.06,1.00,0.08,-14.10,5.10,-22.50,26.7
2026/04/15 14:30:36.70,IMU,-8.79,-13.67,-1013.18,1.15,-1.40,0.63,-13.95,4.80,-20.85,26.4
2026/04/15 14:30:36.80,IMU,-21.97,-20.51,-1021.48,0.06,1.08,0.40,-13.20,4.80,-22.65,26.6
2026/04/15 14:30:36.90,IMU,-43.46,-15.14,-1006.84,0.31,0.95,1.78,-13.50,6.45,-21.15,26.5
2026/04/15 14:30:37.00,IMU,-21.97,-8.79,-1003.91,1.17,-1.15,-0.22,-14.10,5.10,-22.05,26.6
2026/04/15 14:30:37.10,IMU,-21.97,-9.28,-1015.14,1.26,0.55,-0.13,-14.25,4.80,-21.15,26.6
2026/04/15 14:30:37.20,IMU,-34.18,-28.81,-1002.44,0.77,-0.20,0.93,-13.20,5.25,-23.10,26.7
2026/04/15 14:30:37.30,IMU,-22.46,-19.04,-1017.58,0.81,1.73,-2.02,-13.50,5.25,-20.85,26.8
2026/04/15 14:30:37.40,IMU,-14.65,-20.02,-1021.97,-1.18,-1.85,2.47,-13.95,6.00,-21.15,26.6
2026/04/15 14:30:37.50,IMU,-18.07,-31.74,-1022.46,1.73,0.80,2.56,-14.10,4.65,-20.70,26.5
2026/04/15 14:30:37.60,IMU,-19.53,-22.46,-1008.30,-0.34,0.31,-1.03,-15.00,4.80,-21.90,26.5
2026/04/15 14:30:37.70,IMU,-9.28,-20.02,-1022.46,0.15,0.16,-0.63,-13.95,5.25,-20.85,26.6
2026/04/15 14:30:37.80,IMU,-23.44,-21.97,-1008.79,1.31,-1.03,-0.31,-12.60,5.10,-22.50,26.9
2026/04/15 14:30:37.90,IMU,-14.65,-23.44,-1023.44,1.86,-2.22,1.03,-15.45,4.50,-21.15,26.8
2026/04/15 14:30:38.01,IMU,-23.44,-16.11,-1006.35,-1.40,-0.14,1.06,-14.85,6.60,-22.05,26.6
2026/04/15 14:30:38.11,IMU,-14.16,-18.07,-1012.70,-0.90,-0.88,-0.73,-14.25,5.25,-22.35,26.7
2026/04/15 14:30:38.21,IMU,-23.44,-21.97,-1004.88,0.93,0.23,-2.08,-12.75,5.55,-21.90,26.9
2026/04/15 14:30:38.31,IMU,-7.81,-19.04,-1015.14,1.07,0.72,1.37,-13.05,4.65,-20.25,26.7
2026/04/15 14:30:38.41,IMU,-19.53,-14.16,-1013.18,0.06,0.77,-0.05,-14.40,4.65,-21.00,26.5
2026/04/15 14:30:38.51,IMU,-24.41,-16.11,-1017.09,0.65,1.81,-0.06,-13.05,5.10,-20.25,26.5
2026/04/15 14:30:38.61,IMU,-26.37,-9.28,-1020.51,-0.20,0.61,0.69,-13.65,4.35,-22.50,26.7
2026/04/15 14:30:38.71,IMU,-12.70,-13.18,-1020.02,1.59,0.41,-2.27,-13.65,4.65,-21.75,26.6
2026/04/15 14:30:38.81,IMU,-24.90,-18.07,-1017.09,-1.14,0.50,-1.58,-14.25,5.55,-21.90,26.6
2026/04/15 14:30:38.91,IMU,-17.58,-11.72,-1023.44,0.70,0.03,0.78,-13.65,5.10,-21.45,26.6
2026/04/15 14:30:39.01,IMU,-15.63,-29.79,-1017.09,-0.01,0.59,-0.35,-15.45,5.55,-21.90,26.8
2026/04/15 14:30:39.11,IMU,-17.09,-22.46,-1021.97,1.05,1.12,1.21,-12.45,5.25,-22.35,26.6
2026/04/15 14:30:39.21,IMU,-29.30,-29.79,-1015.63,0.73,1.86,1.62,-13.50,6.75,-21.60,26.5
2026/04/15 14:30:39.31,IMU,-9.77,-22.95,-1006.35,-0.22,-0.13,1.92,-16.65,4.65,-19.95,26.4
2026/04/15 14:30:39.41,IMU,-22.46,-20.02,-1012.70,-0.77,0.32,2.18,-14.25,5.55,-21.90,26.8
2026/04/15 14:30:39.51,IMU,-14.16,-14.16,-1006.35,1.44,1.84,-0.70,-14.85,5.85,-20.70,26.7
2026/04/15 14:30:39.61,IMU,-26.86,-13.67,-1015.14,0.68,0.10,-2.68,-13.95,4.50,-21.60,26.3
2026/04/15 14:30:39.71,IMU,-13.18,-11.23,-995.12,-0.18,1.47,-0.29,-13.65,3.90,-22.50,26.6
2026/04/15 14:30:39.81,IMU,-29.79,-14.16,-1008.30,1.31,1.31,-0.73,-13.95,6.00,-23.70,26.4
2026/04/15 14:30:39.91,IMU,-25.88,-11.23,-1004.88,1.12,-1.12,-0.37,-14.70,4.80,-22.65,26.7
2026/04/15 14:30:40.01,IMU,-18.55,-30.27,-1005.37,-0.51,3.41,-1.02,-12.60,5.85,-21.75,26.6
2026/04/15 14:30:40.11,IMU,-15.14,-15.14,-1018.55,0.26,1.24,-1.45,-13.95,6.75,-21.90,26.8
2026/04/15 14:30:40.21,IMU,-33.69,-21.97,-1010.25,0.02,0.84,2.27,-13.20,5.55,-21.90,26.7
2026/04/15 14:30:40.31,IMU,-13.67,-22.46,-1017.58,1.72,0.50,-0.59,-17.25,4.50,-18.00,26.7
2026/04/15 14:30:40.41,IMU,-18.55,-22.95,-1015.14,-0.82,-1.02,-0.60,-13.20,4.05,-21.60,26.7
2026/04/15 14:30:40.51,IMU,-14.16,-20.51,-1009.28,-1.36,2.20,0.95,-13.95,4.80,-21.90,26.7
2026/04/15 14:30:40.61,IMU,-21.00,-18.07,-1011.72,0.82,-0.30,-1.51,-14.40,5.40,-22.50,26.6
2026/04/15 14:30:40.71,IMU,-23.93,-18.07,-1011.23,1.32,0.42,2.56,-13.20,6.00,-21.90,26.8
2026/04/15 14:30:40.81,IMU,-18.55,-28.32,-1009.28,0.86,0.95,0.78,-13.35,3.90,-21.75,26.7
2026/04/15 14:30:40.91,IMU,-36.13,-15.63,-1016.60,-0.04,-0.48,0.93,-12.60,5.40,-20.70,26.5
2026/04/15 14:30:41.01,IMU,-20.02,-18.07,-1004.39,1.10,-0.19,-0.69,-13.50,6.75,-22.65,26.6
2026/04/15 14:30:41.11,IMU,-22.95,-11.72,-1015.14,0.20,-1.33,-1.44,-13.35,5.10,-21.00,26.6
2026/04/15 14:30:41.21,IMU,-35.16,-18.55,-1023.44,-1.76,1.11,-0.94,-13.20,5.25,-21.60,26.5
2026/04/15 14:30:41.32,IMU,-22.46,-14.65,-999.51,1.02,-0.31,-1.73,-13.50,4.50,-20.55,26.6
2026/04/15 14:30:41.42,IMU,-24.41,-3.42,-1011.72,0.03,0.56,0.51,-13.65,5.10,-21.75,26.7
2026/04/15 14:30:41.52,IMU,-19.53,-17.58,-1014.16,1.02,2.40,-1.27,-12.75,6.00,-21.90,26.5
2026/04/15 14:30:41.62,IMU,-14.65,-16.11,-1014.16,1.31,-0.85,-1.19,-13.20,5.25,-21.60,26.7
2026/04/15 14:30:41.72,IMU,-24.41,-38.09,-1009.77,-1.00,1.89,-0.16,-14.40,5.85,-22.05,26.7
2026/04/15 14:30:41.83,IMU,-26.86,-10.25,-1018.07,1.81,-0.69,-0.40,-13.65,5.10,-21.75,26.7
2026/04/15 14:30:41.93,IMU,-15.14,-22.95,-1012.21,0.44,-0.41,2.75,-13.35,5.40,-21.75,26.7
2026/04/15 14:30:42.03,IMU,-12.70,-24.90,-1022.95,0.61,1.13,-1.41,-13.95,6.45,-22.65,26.6
2026/04/15 14:30:42.13,IMU,-19.53,-21.48,-1000.00,1.61,0.68,-3.27,-13.95,6.45,-22.35,26.6
2026/04/15 14:30:42.23,IMU,-19.04,-16.60,-1016.60,0.36,-0.79,-0.70,-13.35,5.85,-21.45,26.7
2026/04/15 14:30:42.33,IMU,-21.97,-13.67,-1011.23,-0.23,0.74,2.22,-13.20,4.80,-21.90,26.5
2026/04/15 14:30:42.43,IMU,-29.79,-33.69,-1006.35,1.03,1.05,-2.46,-13.95,6.00,-21.15,26.6
2026/04/15 14:30:42.53,IMU,-28.81,-18.55,-1015.63,-0.25,-0.56,1.13,-12.75,4.80,-21.90,26.7
2026/04/15 14:30:42.63,IMU,-13.67,-18.55,-1008.30,2.79,1.44,-0.42,-13.20,5.55,-21.90,26.7
2026/04/15 14:30:42.73,IMU,-33.69,-23.44,-1015.63,-0.56,2.34,2.38,-14.10,6.15,-22.50,26.7
2026/04/15 14:30:42.83,IMU,-21.00,-28.32,-1006.84,0.76,1.72,-0.66,-13.05,5.85,-21.45,26.4
2026/04/15 14:30:42.93,IMU,-25.39,-18.07,-1009.28,0.92,0.82,-1.98,-13.05,5.10,-22.05,26.5
2026/04/15 14:30:43.03,IMU,-17.58,-12.21,-1011.72,-0.44,0.80,2.31,-13.50,6.00,-22.35,26.5
2026/04/15 14:30:43.13,IMU,-32.71,-12.70,-1005.86,0.60,1.07,1.26,-13.05,5.85,-21.75,26.8
2026/04/15 14:30:43.23,IMU,-14.65,-13.18,-1021.48,2.11,1.96,-0.76,-13.95,4.50,-21.15,26.7
2026/04/15 14:30:43.33,IMU,-25.39,-27.83,-1025.39,0.99,-0.98,0.08,-12.45,6.00,-22.65,26.8
2026/04/15 14:30:43.43,IMU,-22.95,2.44,-1013.67,-2.90,2.58,-2.56,-12.45,6.00,-20.85,26.7
2026/04/15 14:30:43.53,IMU,-21.48,-23.44,-1015.63,0.34,-0.81,1.69,-13.05,6.15,-22.05,26.8
2026/04/15 14:30:43.63,IMU,-23.93,-24.90,-1016.11,0.80,2.03,1.73,-14.25,6.75,-22.35,26.7
2026/04/15 14:30:43.73,IMU,-17.58,-21.00,-1018.55,1.56,-0.29,1.41,-13.50,4.05,-22.35,26.8
2026/04/15 14:30:43.83,IMU,-25.39,-14.65,-997.07,0.18,0.25,2.04,-12.75,6.00,-20.85,26.7
2026/04/15 14:30:43.93,IMU,-17.58,-10.74,-1023.93,1.17,-2.65,1.11,-12.75,6.00,-21.90,26.5
2026/04/15 14:30:44.03,IMU,-11.72,-20.02,-1001.95,-0.27,3.23,-0.75,-13.95,6.00,-21.15,26.6
2026/04/15 14:30:44.13,IMU,-13.18,-29.79,-1006.84,-0.29,1.48,-1.44,-13.65,6.15,-21.75,26.7
2026/04/15 14:30:44.23,IMU,-14.16,-15.14,-1028.32,-0.73,0.99,1.92,-14.10,5.40,-21.75,26.5
2026/04/15 14:30:44.33,IMU,-25.39,-11.72,-1021.48,0.50,2.02,0.11,-15.45,4.80,-21.60,26.4
2026/04/15 14:30:44.43,IMU,-16.60,-13.67,-1011.72,1.89,-1.14,0.92,-13.65,5.10,-21.45,26.8
2026/04/15 14:30:44.53,IMU,-13.18,-30.76,-1011.72,0.51,1.42,0.49,-13.35,4.35,-20.70,26.7
2026/04/15 14:30:44.63,IMU,-32.23,-21.48,-1011.23,0.79,1.99,2.28,-13.50,5.55,-20.85,26.4
2026/04/15 14:30:44.73,IMU,-16.11,-14.65,-1016.11,-0.53,0.64,-0.03,-13.50,7.50,-20.85,26.6
2026/04/15 14:30:44.84,IMU,-28.81,-7.32,-1005.37,1.15,-0.93,-0.27,-15.15,5.40,-21.45,26.5
2026/04/15 14:30:44.94,IMU,-22.95,-12.70,-1023.93,1.79,1.24,1.00,-14.10,5.40,-21.45,26.7
2026/04/15 14:30:45.04,IMU,-26.37,-19.04,-1008.30,-0.58,-0.73,-3.17,-13.20,4.80,-21.90,26.7
2026/04/15 14:30:45.14,IMU,-30.27,-23.44,-1007.32,1.47,-0.62,0.21,-13.05,6.60,-21.75,26.7
2026/04/15 14:30:45.24,IMU,-30.27,-17.58,-1016.60,0.45,-0.02,-0.09,-13.95,6.00,-21.15,26.7
2026/04/15 14:30:45.34,IMU,-16.11,-18.55,-1019.04,1.17,-1.11,1.99,-13.20,5.55,-21.90,26.4
2026/04/15 14:30:45.44,IMU,-11.72,-22.95,-1007.81,-1.85,1.65,2.34,-13.95,3.75,-21.90,26.6
2026/04/15 14:30:45.54,IMU,-29.30,-25.39,-1015.63,-0.38,-0.60,-1.19,-13.65,7.35,-21.75,26.8
2026/04/15 14:30:45.64,IMU,-22.46,-21.97,-1011.23,1.27,1.01,-1.21,-13.95,5.25,-21.15,26.9
2026/04/15 14:30:45.74,IMU,-20.51,-20.51,-1015.63,-0.01,2.19,-0.21,-14.25,6.00,-21.90,26.7
2026/04/15 14:30:45.84,IMU,-13.67,-13.67,-1014.65,0.31,0.50,-1.47,-13.05,3.90,-22.50,26.7
2026/04/15 14:30:45.94,IMU,-32.23,-25.39,-1021.00,-0.21,-0.66,0.56,-13.20,5.55,-23.10,26.4
2026/04/15 14:30:46.04,IMU,-9.77,-22.95,-1016.60,1.26,1.02,2.41,-14.70,7.20,-22.35,26.8
2026/04/15 14:30:46.14,IMU,-23.93,-26.37,-1028.32,1.60,0.92,1.66,-13.65,5.85,-21.45,26.7
2026/04/15 14:30:46.24,IMU,-34.67,-9.28,-1019.04,0.98,-0.92,0.91,-14.25,4.80,-22.35,26.6
2026/04/15 14:30:46.34,IMU,-24.90,-15.14,-1024.90,0.84,0.60,0.96,-14.10,4.65,-22.05,26.7
2026/04/15 14:30:46.44,IMU,-15.63,-21.97,-1007.81,-0.06,1.87,0.20,-13.95,6.75,-21.90,26.7
2026/04/15 14:30:46.54,IMU,-34.18,-23.44,-1023.44,0.38,-0.23,-1.60,-12.60,6.15,-22.05,26.8
2026/04/15 14:30:46.64,IMU,-25.88,-31.74,-1019.04,1.43,1.31,-1.04,-12.60,5.10,-21.45,26.5
2026/04/15 14:30:46.74,IMU,-32.71,-18.55,-1034.67,-0.78,-0.35,0.94,-12.30,4.65,-22.50,26.6
2026/04/15 14:30:46.84,IMU,-8.79,-35.16,-1017.58,0.53,-0.08,0.77,-12.75,4.80,-21.15,26.8
2026/04/15 14:30:46.94,IMU,-30.27,-29.30,-1003.91,-1.44,-1.53,1.27,-13.95,5.25,-22.35,26.6
2026/04/15 14:30:47.04,IMU,-19.04,-9.77,-1014.65,-1.69,2.15,-2.23,-14.85,6.60,-21.75,26.8
2026/04/15 14:30:47.14,IMU,-7.32,-17.58,-1010.25,0.74,0.20,-0.01,-13.95,6.45,-21.15,26.7
2026/04/15 14:30:47.24,IMU,-21.00,-14.65,-995.12,-0.38,1.37,0.65,-13.95,6.45,-22.35,26.7
2026/04/15 14:30:47.34,IMU,-22.95,-18.55,-1028.32,-1.04,-0.01,0.31,-13.65,6.15,-21.45,26.7
2026/04/15 14:30:47.44,IMU,-21.48,-25.39,-1021.48,-0.11,0.65,3.82,-16.80,5.25,-19.05,26.6
2026/04/15 14:30:47.54,IMU,-27.83,-29.79,-1010.74,-0.16,-0.49,-0.75,-13.50,4.80,-21.15,26.7
2026/04/15 14:30:47.64,IMU,-21.48,-28.32,-1021.00,0.69,-0.74,-0.78,-13.50,4.80,-21.15,26.8
2026/04/15 14:30:47.74,IMU,-20.02,-9.77,-1015.14,0.36,1.46,-3.56,-13.35,5.85,-22.50,26.5
2026/04/15 14:30:47.84,IMU,-15.14,-21.97,-1016.11,0.44,0.16,2.19,-13.95,6.00,-21.60,26.7
2026/04/15 14:30:47.94,IMU,-25.88,-28.32,-1015.14,0.33,0.94,-0.12,-14.10,4.35,-20.70,26.6
2026/04/15 14:30:48.05,IMU,-28.81,-19.53,-1011.23,0.49,-2.46,0.64,-14.70,6.00,-21.90,26.7
2026/04/15 14:30:48.15,IMU,-21.97,-15.63,-1014.16,-0.01,0.48,-1.68,-12.75,5.25,-22.35,26.7
2026/04/15 14:30:48.25,IMU,-22.46,-21.97,-1016.11,0.54,-0.89,-1.37,-13.20,6.00,-22.35,26.6
2026/04/15 14:30:48.35,IMU,-34.67,-16.60,-1012.21,-1.08,-1.03,-1.29,-13.20,6.00,-21.60,26.8
2026/04/15 14:30:48.45,IMU,-28.81,-35.16,-1012.21,-2.28,1.10,-0.08,-17.10,2.40,-16.35,26.6
2026/04/15 14:30:48.55,IMU,-18.07,-17.09,-1021.97,-0.63,-0.81,1.83,-13.20,5.25,-21.90,26.7
2026/04/15 14:30:48.65,IMU,-18.55,-18.55,-1009.28,1.15,0.47,-2.88,-13.20,4.50,-21.90,26.7
2026/04/15 14:30:48.75,IMU,-29.30,-15.63,-1009.28,0.81,0.51,-0.65,-13.05,4.35,-21.75,26.8
2026/04/15 14:30:48.85,IMU,-14.16,-11.23,-1015.14,0.53,0.18,-0.30,-13.95,6.75,-21.60,26.6
2026/04/15 14:30:48.95,IMU,-18.55,-29.30,-1022.95,0.75,1.29,-1.09,-14.10,5.40,-22.50,26.7
2026/04/15 14:30:49.05,IMU,-10.25,-24.41,-991.21,0.29,-0.76,0.12,-13.05,5.85,-22.50,26.5
2026/04/15 14:30:49.15,IMU,-28.81,-24.90,-988.77,-0.52,0.85,1.63,-14.25,4.05,-21.15,26.6
2026/04/15 14:30:49.25,IMU,-28.81,-18.55,-1027.34,-1.13,-1.19,-0.66,-12.60,6.60,-21.00,27.0
2026/04/15 14:30:49.35,IMU,-19.04,-7.32,-996.09,1.34,0.51,-2.31,-13.05,5.10,-21.45,26.7
2026/04/15 14:30:49.45,IMU,-39.55,-17.09,-1017.09,1.27,0.56,-0.25,-14.40,5.85,-22.05,26.8
2026/04/15 14:30:49.55,IMU,-15.14,-32.71,-1018.07,0.65,1.11,-1.65,-14.10,3.90,-20.70,26.6
2026/04/15 14:30:49.65,IMU,-21.97,-21.48,-1015.14,3.03,-1.92,1.78,-14.40,6.60,-21.45,26.8
2026/04/15 14:30:49.75,IMU,-30.76,-29.79,-1004.88,1.30,2.73,1.09,-12.60,4.65,-22.05,26.6
2026/04/15 14:30:49.85,IMU,-19.04,-22.46,-1013.18,1.25,2.33,-1.23,-13.05,6.15,-22.80,26.6
2026/04/15 14:30:49.95,IMU,-22.95,-12.21,-1004.88,0.63,0.14,-1.25,-14.25,6.00,-21.60,26.8
2026/04/15 14:30:50.05,IMU,-31.25,-32.23,-1020.02,0.92,-2.22,0.53,-11.40,7.50,-21.15,26.9
2026/04/15 14:30:50.15,IMU,-6.35,-17.58,-1014.16,0.21,-0.79,0.38,-13.20,3.75,-21.90,26.7
2026/04/15 14:30:50.25,IMU,-29.79,-21.48,-1004.39,0.50,0.85,0.91,-13.20,5.25,-21.90,26.7
2026/04/15 14:30:50.35,IMU,-18.07,-28.81,-1013.67,0.34,0.08,2.27,-12.60,4.65,-21.75,26.7
2026/04/15 14:30:50.46,IMU,-20.02,-16.60,-1013.18,-0.91,1.33,3.45,-15.75,1.80,-17.25,26.7
2026/04/15 14:30:50.56,IMU,-23.93,-17.58,-1016.60,0.23,-0.08,1.49,-12.75,6.00,-23.40,26.8
2026/04/15 14:30:50.66,IMU,-29.30,-9.77,-1007.32,0.35,0.74,0.47,-13.95,7.20,-21.15,26.7
2026/04/15 14:30:50.76,IMU,-13.67,-18.07,-1021.97,2.34,-0.85,2.36,-13.65,5.40,-21.75,26.5
2026/04/15 14:30:50.86,IMU,-9.28,-24.41,-1010.25,-0.30,0.90,2.67,-13.65,4.65,-21.45,26.7
2026/04/15 14:30:50.96,IMU,-27.83,-29.30,-1014.65,1.18,-0.06,0.67,-12.75,5.25,-22.35,26.6
2026/04/15 14:30:51.06,IMU,-21.00,-26.86,-1003.91,1.40,-0.11,0.43,-13.20,6.45,-20.85,26.7
2026/04/15 14:30:51.16,IMU,-10.74,-18.07,-1009.28,0.96,-0.11,4.24,-13.50,4.80,-23.10,26.5
2026/04/15 14:30:51.26,IMU,-31.25,-24.90,-1014.65,-0.15,3.08,-0.21,-13.20,5.25,-22.65,26.8
2026/04/15 14:30:51.36,IMU,-19.53,-16.11,-1025.39,-0.39,-1.31,-4.07,-13.20,5.55,-21.15,26.7
2026/04/15 14:30:51.46,IMU,-25.39,-24.41,-1002.93,-0.53,2.24,0.34,-13.35,5.85,-22.50,26.8
2026/04/15 14:30:51.56,IMU,-9.77,-9.77,-1025.88,-0.98,-0.78,-2.02,-13.35,4.65,-21.45,26.6
2026/04/15 14:30:51.67,IMU,-24.41,-16.11,-1005.86,1.14,-1.57,-0.94,-13.50,4.80,-23.10,27.0
2026/04/15 14:30:51.77,IMU,-25.88,-19.04,-1028.32,-0.65,1.44,1.24,-13.95,6.45,-21.15,26.7
2026/04/15 14:30:51.87,IMU,-27.34,-11.23,-1002.93,-0.37,-0.36,-0.57,-13.20,5.25,-21.60,26.6
2026/04/15 14:30:51.97,IMU,-20.02,-22.95,-1010.25,-0.16,0.89,1.59,-13.95,5.55,-20.85,26.8
2026/04/15 14:30:52.07,IMU,-18.55,-14.16,-1016.11,0.68,-1.15,-0.88,-13.65,5.85,-21.00,26.4
2026/04/15 14:30:52.17,IMU,-13.18,-25.39,-1018.55,-0.74,1.76,1.34,-13.35,6.90,-21.45,26.7
2026/04/15 14:30:52.27,IMU,-29.79,-21.97,-1018.07,0.20,0.76,2.28,-12.30,5.85,-21.75,26.5
2026/04/15 14:30:52.37,IMU,-20.51,-26.86,-1009.28,0.09,1.10,0.18,-13.50,5.55,-21.15,26.6
2026/04/15 14:30:52.47,IMU,-21.97,-12.21,-1018.55,1.01,0.76,-1.30,-14.70,4.80,-20.85,26.8
2026/04/15 14:30:52.57,IMU,-26.37,-26.86,-1010.74,0.56,-0.85,-1.47,-13.65,5.40,-21.75,26.7
2026/04/15 14:30:52.67,IMU,-10.74,-21.48,-1011.23,-0.19,-0.55,-2.53,-12.60,5.85,-21.45,26.8
2026/04/15 14:30:52.77,IMU,-12.21,-21.48,-1019.53,0.22,-0.06,-2.46,-12.60,5.85,-19.65,27.0
2026/04/15 14:30:52.87,IMU,-28.81,-24.90,-1013.67,-0.17,1.98,-0.56,-13.35,6.15,-22.80,26.8
2026/04/15 14:30:52.97,IMU,-17.58,-14.16,-1023.44,-1.13,-0.74,0.40,-14.25,5.25,-21.60,26.8
2026/04/15 14:30:53.07,IMU,-10.25,-14.65,-1015.14,0.17,0.49,2.93,-14.25,6.00,-21.60,26.8
2026/04/15 14:30:53.17,IMU,-14.16,-30.27,-1020.51,0.38,0.07,-4.44,-14.70,5.55,-21.15,26.7
2026/04/15 14:30:53.27,IMU,-26.86,-15.63,-1017.58,1.79,1.20,-0.98,-13.35,6.15,-22.50,26.8
2026/04/15 14:30:53.37,IMU,-21.48,-18.55,-1014.65,-0.52,1.89,-1.47,-13.35,5.40,-21.75,26.9
2026/04/15 14:30:53.47,IMU,-27.34,-21.48,-1022.46,-1.41,-0.35,-0.05,-13.20,5.55,-21.90,26.6
2026/04/15 14:30:53.57,IMU,-20.02,-25.88,-1019.04,-0.81,0.26,-0.85,-12.45,4.50,-21.90,26.6
2026/04/15 14:30:53.67,IMU,-15.63,-13.18,-1013.67,0.31,1.13,-0.13,-14.25,5.25,-21.15,26.6
2026/04/15 14:30:53.77,IMU,-20.51,-15.63,-1022.95,1.67,1.71,0.70,-13.35,5.10,-20.25,26.8
2026/04/15 14:30:53.87,IMU,-24.41,-23.44,-1000.98,0.21,-1.37,-1.73,-14.25,4.80,-21.60,26.8
2026/04/15 14:30:53.97,IMU,-22.95,-27.34,-1012.70,-1.24,0.99,-1.48,-12.30,6.15,-21.45,26.9
2026/04/15 14:30:54.07,IMU,-25.39,-13.67,-1012.21,-0.42,-0.34,0.75,-12.45,6.75,-22.65,26.7
2026/04/15 14:30:54.17,IMU,-17.09,-12.21,-1014.65,-0.20,0.34,2.66,-13.05,5.85,-20.70,26.8
2026/04/15 14:30:54.27,IMU,-13.18,-19.53,-1011.23,0.26,1.28,-0.24,-13.50,6.00,-20.85,26.6
2026/04/15 14:30:54.37,IMU,-21.97,-12.70,-1006.35,0.79,-0.63,0.44,-14.10,4.35,-21.45,26.7
2026/04/15 14:30:54.47,IMU,-27.34,-19.04,-1033.20,0.24,0.90,1.42,-13.65,5.85,-21.45,26.8
2026/04/15 14:30:54.57,IMU,-30.27,-18.55,-998.54,1.43,-1.02,0.63,-13.05,6.15,-21.45,26.8
2026/04/15 14:30:54.67,IMU,-26.37,-20.51,-1008.30,0.69,2.29,-3.09,-14.25,4.80,-21.90,26.9
2026/04/15 14:30:54.78,IMU,-14.16,-11.23,-1020.51,-0.47,-0.61,2.46,-13.95,4.05,-21.60,26.7
2026/04/15 14:30:54.88,IMU,-19.53,-31.25,-1022.46,-1.21,0.34,3.06,-13.95,5.55,-21.90,26.7
2026/04/15 14:30:54.98,IMU,-28.32,-11.23,-1014.65,-0.90,-0.66,-0.60,-13.35,6.15,-23.25,26.5
2026/04/15 14:30:55.08,IMU,-15.14,-11.72,-1008.79,-0.97,0.57,2.19,-13.35,5.85,-22.05,26.7
2026/04/15 14:30:55.18,IMU,-14.65,-22.95,-1015.63,0.84,0.11,-1.29,-13.35,5.40,-21.75,26.8
2026/04/15 14:30:55.28,IMU,-13.67,-19.04,-1008.79,0.82,1.21,-0.40,-13.95,5.55,-22.35,26.8
2026/04/15 14:30:55.38,IMU,-19.04,-14.16,-1017.58,1.09,-1.14,0.60,-11.85,4.65,-21.00,26.5
2026/04/15 14:30:55.48,IMU,-26.86,-9.28,-1016.11,1.14,2.63,-2.47,-12.75,6.00,-21.60,26.7
2026/04/15 14:30:55.58,IMU,-27.34,-18.55,-1012.70,1.66,0.45,2.77,-12.00,5.55,-22.65,26.7
2026/04/15 14:30:55.68,IMU,-18.55,-22.95,-1006.35,-0.99,0.42,-2.54,-13.35,6.60,-19.95,26.7
2026/04/15 14:30:55.78,IMU,-17.58,-17.09,-1014.65,-0.57,-0.63,-3.54,-14.10,5.85,-20.25,26.7
2026/04/15 14:30:55.88,IMU,-21.00,-19.53,-1015.63,1.87,-0.24,-0.40,-13.95,6.45,-20.55,26.9
2026/04/15 14:30:55.98,IMU,-15.14,-30.76,-1016.11,0.02,1.58,-1.84,-14.25,5.55,-21.15,26.7
2026/04/15 14:30:56.08,IMU,-9.28,-23.93,-1014.65,-1.48,-1.08,-1.27,-13.50,5.55,-20.85,26.9
2026/04/15 14:30:56.18,IMU,-24.41,-29.30,-1025.88,-0.54,-0.11,1.08,-12.60,5.40,-20.70,26.8
2026/04/15 14:30:56.28,IMU,-10.25,-19.53,-1018.55,0.37,-2.39,-1.47,-13.65,6.15,-20.70,26.7
2026/04/15 14:30:56.38,IMU,-16.11,-6.84,-1011.23,0.80,1.97,-0.43,-13.50,5.25,-22.35,26.7
2026/04/15 14:30:56.48,IMU,-13.18,-29.30,-1013.67,1.61,1.71,-1.65,-13.95,4.50,-20.55,26.7
2026/04/15 14:30:56.58,IMU,-16.60,-21.48,-1008.79,-0.21,1.77,2.13,-13.65,6.15,-20.70,26.8
2026/04/15 14:30:56.68,IMU,-7.32,-9.28,-1011.72,-0.03,0.91,-0.20,-14.25,5.55,-22.65,26.5
2026/04/15 14:30:56.78,IMU,-31.74,-7.81,-1018.55,0.29,-0.29,-1.91,-12.60,3.15,-21.75,26.7
2026/04/15 14:30:56.88,IMU,-19.53,-9.77,-1006.35,-0.05,0.47,-0.17,-14.40,5.40,-20.70,27.0
2026/04/15 14:30:56.98,IMU,-24.41,-18.07,-1006.35,0.29,1.35,1.21,-12.60,5.10,-21.75,26.8
2026/04/15 14:30:57.08,IMU,-15.63,-23.44,-1019.53,1.35,0.66,-0.27,-13.35,4.65,-21.75,26.8
2026/04/15 14:30:57.18,IMU,-21.00,-18.07,-1021.00,-0.24,-0.24,1.39,-12.75,4.80,-20.55,26.7
2026/04/15 14:30:57.28,IMU,-21.00,-38.09,-1012.21,-0.63,-1.06,1.28,-12.30,3.90,-21.75,26.8
2026/04/15 14:30:57.38,IMU,-20.51,-20.51,-1003.42,0.97,-1.03,0.04,-14.70,6.00,-20.85,26.7
2026/04/15 14:30:57.48,IMU,-22.46,-22.46,-1015.63,-0.32,0.14,0.12,-13.50,4.50,-21.60,26.7
2026/04/15 14:30:57.58,IMU,-20.51,-16.11,-1004.39,-1.35,1.00,-2.00,-16.35,5.40,-18.45,26.6
2026/04/15 14:30:57.68,IMU,-15.14,-9.28,-1007.32,1.72,-1.29,-0.50,-13.95,5.55,-20.55,26.7
2026/04/15 14:30:57.78,IMU,-16.11,-23.93,-1010.74,-0.57,1.51,0.37,-14.40,5.40,-21.00,26.7
2026/04/15 14:30:57.88,IMU,-21.97,-17.58,-1012.21,0.63,2.47,0.44,-14.40,4.65,-20.70,26.7
2026/04/15 14:30:57.99,IMU,-16.60,-21.00,-1008.30,-1.80,1.60,-1.69,-13.50,4.50,-21.90,26.8
2026/04/15 14:30:58.09,IMU,-19.04,-27.83,-1024.90,0.50,0.27,0.40,-12.45,5.55,-20.85,26.8
2026/04/15 14:30:58.19,IMU,-31.25,-10.25,-1008.30,2.49,-1.79,1.60,-13.35,5.85,-21.00,26.8
2026/04/15 14:30:58.29,IMU,-23.44,-4.88,-1015.63,-0.62,1.02,-0.40,-13.35,4.35,-21.75,26.7
2026/04/15 14:30:58.39,IMU,-16.11,-21.48,-1016.60,1.72,0.53,-0.18,-12.45,5.55,-20.10,26.8
2026/04/15 14:30:58.49,IMU,-20.51,-27.83,-1029.79,0.40,1.83,-1.24,-14.40,6.60,-22.50,26.8
2026/04/15 14:30:58.59,IMU,-14.16,-20.02,-1009.28,-0.24,2.00,-2.43,-14.85,2.40,-20.70,26.4
2026/04/15 14:30:58.69,IMU,-22.95,-13.18,-1021.00,-0.02,1.31,0.90,-13.65,5.40,-20.70,26.5
2026/04/15 14:30:58.79,IMU,-15.63,-14.65,-1008.30,0.33,1.14,0.37,-14.40,6.15,-21.45,26.6
2026/04/15 14:30:58.89,IMU,-6.35,-27.83,-1010.25,-0.27,1.34,1.03,-12.30,4.65,-21.00,26.6
2026/04/15 14:30:58.99,IMU,-28.32,-30.76,-1014.65,-1.16,-1.84,0.60,-13.20,5.55,-21.15,26.6
2026/04/15 14:30:59.09,IMU,-12.70,-23.44,-1012.70,-1.17,1.51,0.87,-14.10,4.65,-20.70,26.7
2026/04/15 14:30:59.19,IMU,-19.53,-17.58,-1019.04,1.80,1.37,2.49,-14.40,5.40,-21.75,26.9
2026/04/15 14:30:59.29,IMU,-21.00,-22.95,-1013.67,0.94,-0.77,0.67,-13.50,5.25,-20.85,26.7
2026/04/15 14:30:59.39,IMU,-18.55,-22.95,-1011.23,0.04,-0.60,1.27,-13.05,5.40,-22.05,26.8
2026/04/15 14:30:59.49,IMU,-12.70,-15.14,-1013.18,-0.30,-0.66,0.78,-14.10,5.10,-21.45,26.8
2026/04/15 14:30:59.60,IMU,-11.72,-25.39,-1021.00,-0.11,2.47,-2.02,-13.50,3.75,-19.80,26.8
2026/04/15 14:30:59.70,IMU,-29.79,-15.14,-997.56,0.90,0.12,-0.10,-13.35,4.35,-21.45,26.9
2026/04/15 14:30:59.80,IMU,-19.53,-12.21,-1018.07,-0.16,0.60,0.56,-14.10,5.10,-20.70,26.7
2026/04/15 14:30:59.90,IMU,-21.00,-12.21,-1019.53,1.27,0.04,-2.08,-13.65,5.40,-21.45,26.7
2026/04/15 14:31:00.00,IMU,-22.95,-25.88,-1020.02,0.62,1.37,-2.34,-13.95,5.25,-21.60,27.0
2026/04/15 14:31:00.10,IMU,-13.67,-14.65,-1015.63,-1.42,-1.64,2.55,-14.10,6.15,-20.25,26.6
2026/04/15 14:31:00.20,IMU,-32.71,-21.97,-1012.21,0.25,0.80,-1.29,-14.85,4.65,-21.45,26.8
2026/04/15 14:31:00.30,IMU,-21.00,-13.67,-1022.46,-1.50,1.51,3.45,-13.35,6.60,-20.70,26.6
2026/04/15 14:31:00.40,IMU,-36.13,-19.04,-1017.58,0.30,0.12,1.95,-13.65,5.10,-21.00,26.7
2026/04/15 14:31:00.50,IMU,-17.58,-21.97,-1014.16,1.14,1.53,-1.07,-12.75,5.25,-20.85,26.8
2026/04/15 14:31:00.60,IMU,-25.88,-29.79,-1002.93,0.15,-0.89,0.09,-13.50,4.50,-22.65,26.8
2026/04/15 14:31:00.70,IMU,-21.00,-16.11,-1022.95,1.11,1.03,-2.05,-13.05,5.10,-21.45,26.9
2026/04/15 14:31:00.80,IMU,-29.79,-16.11,-1019.53,-0.26,2.29,-0.77,-12.00,6.00,-20.55,26.7
2026/04/15 14:31:00.90,IMU,-21.48,-23.93,-1013.18,-0.52,1.70,0.66,-13.65,5.10,-21.45,26.7
2026/04/15 14:31:01.00,IMU,-20.51,-20.51,-1020.51,-0.93,-0.69,1.66,-14.10,6.60,-20.70,26.6
2026/04/15 14:31:01.10,IMU,-24.41,-24.90,-1029.79,0.08,1.24,0.73,-13.50,5.25,-21.15,26.7
2026/04/15 14:31:01.20,IMU,-21.00,-16.11,-1026.86,0.41,1.40,-2.62,-12.45,4.80,-22.35,26.3
2026/04/15 14:31:01.30,IMU,-25.88,-45.41,-1015.14,2.06,-0.68,-1.32,-12.60,5.85,-21.45,26.6
2026/04/15 14:31:01.40,IMU,-16.60,-23.44,-1015.14,-0.33,0.86,2.81,-12.45,5.25,-21.90,26.8
2026/04/15 14:31:01.50,IMU,-24.90,-14.16,-1016.60,0.50,1.40,-0.79,-13.35,5.85,-22.05,26.5
2026/04/15 14:31:01.61,IMU,-23.44,-21.00,-1011.72,0.77,2.18,1.09,-14.25,5.25,-21.15,26.8
2026/04/15 14:31:01.71,IMU,-11.23,-29.30,-998.54,-1.31,-0.11,-0.53,-13.50,6.00,-21.15,26.8
2026/04/15 14:31:01.81,IMU,-19.04,-24.41,-1010.25,-0.86,-2.46,-1.68,-13.95,5.25,-21.60,26.7
2026/04/15 14:31:01.91,IMU,-24.41,-18.07,-1008.79,1.07,-0.75,0.72,-13.05,5.40,-21.45,26.8
2026/04/15 14:31:02.01,IMU,-30.27,-12.70,-1017.09,-2.18,-2.20,1.02,-12.60,6.15,-21.00,26.8
2026/04/15 14:31:02.11,IMU,-21.48,-19.53,-1017.09,-0.32,1.08,-0.42,-13.65,5.85,-22.50,26.7
2026/04/15 14:31:02.21,IMU,-35.64,-18.07,-1013.67,1.76,0.90,1.06,-13.20,5.55,-20.85,26.9
2026/04/15 14:31:02.31,IMU,-16.60,-11.72,-1016.60,0.75,0.11,-0.87,-13.20,6.75,-21.90,26.8
2026/04/15 14:31:02.41,IMU,-15.14,-23.44,-1013.67,-0.49,-1.23,3.05,-13.50,6.45,-21.60,26.7
2026/04/15 14:31:02.51,IMU,-21.97,-9.77,-1013.18,-0.07,-0.82,1.35,-14.25,6.00,-20.55,26.8
2026/04/15 14:31:02.61,IMU,-20.02,-9.77,-1016.11,0.21,1.04,0.00,-12.00,4.80,-21.15,26.8
2026/04/15 14:31:02.71,IMU,-0.49,-22.95,-1010.74,1.46,-1.39,0.81,-12.45,4.50,-19.80,26.7
2026/04/15 14:31:02.81,IMU,-31.25,-33.20,-1026.86,-1.10,0.35,-0.11,-13.95,4.80,-21.90,26.6
2026/04/15 14:31:02.91,IMU,-12.70,-6.84,-1019.04,-0.32,1.50,1.72,-13.95,4.80,-20.85,26.7
2026/04/15 14:31:03.01,IMU,-23.44,-16.60,-1006.84,0.21,0.08,-0.31,-13.50,6.00,-21.15,26.6
2026/04/15 14:31:03.11,IMU,-15.63,-28.32,-1012.70,-0.33,0.02,-2.08,-14.10,5.10,-21.45,26.8
2026/04/15 14:31:03.21,IMU,-10.74,-21.00,-1026.37,0.94,1.11,0.29,-12.75,6.00,-21.90,26.8
2026/04/15 14:31:03.31,IMU,-28.32,-16.11,-1011.72,-0.54,-2.19,-1.46,-13.05,5.10,-21.75,26.6
2026/04/15 14:31:03.41,IMU,-10.74,-26.37,-1014.16,0.69,1.85,-0.56,-13.20,5.25,-22.35,26.7
2026/04/15 14:31:03.51,IMU,-25.39,-23.93,-1025.88,-0.01,-1.21,-1.09,-13.05,6.15,-20.70,26.7
2026/04/15 14:31:03.61,IMU,-11.72,-18.55,-1013.18,-0.04,-0.57,-0.88,-14.10,3.60,-21.00,26.8
2026/04/15 14:31:03.71,IMU,-28.32,-16.60,-1006.35,0.77,-0.11,-3.00,-13.95,5.25,-21.15,26.8
2026/04/15 14:31:03.81,IMU,-22.46,-13.67,-1008.79,0.96,1.37,-0.94,-13.50,5.25,-21.60,27.0
2026/04/15 14:31:03.91,IMU,-22.95,-24.41,-1009.28,-0.12,1.63,-1.68,-13.95,5.25,-21.15,26.8
2026/04/15 14:31:04.01,IMU,-14.16,-24.41,-1032.23,1.71,0.66,-2.76,-14.10,6.15,-21.75,26.7
2026/04/15 14:31:04.11,IMU,-18.07,-18.55,-1009.77,1.94,0.83,-1.09,-14.70,5.25,-21.60,26.7
2026/04/15 14:31:04.21,IMU,-41.02,-19.04,-1020.51,0.41,0.19,0.98,-13.95,5.55,-22.35,26.9
2026/04/15 14:31:04.31,IMU,-12.70,-31.25,-1019.53,-0.55,1.24,2.31,-12.30,4.65,-22.80,26.4
2026/04/15 14:31:04.41,IMU,-21.97,-22.46,-1012.21,0.44,-0.63,-0.56,-13.65,6.15,-20.70,26.5
2026/04/15 14:31:04.51,IMU,-21.48,-23.93,-1016.11,-1.10,-0.05,-0.02,-14.10,5.85,-22.05,26.9
2026/04/15 14:31:04.61,IMU,-27.34,-16.60,-1004.39,-0.22,1.42,0.17,-13.65,5.10,-21.00,26.8
2026/04/15 14:31:04.71,IMU,-25.39,-23.44,-1015.14,-0.16,-0.79,-0.02,-14.10,6.60,-21.45,26.7
2026/04/15 14:31:04.82,IMU,-36.13,-19.53,-1017.58,0.73,-0.01,-2.23,-13.50,6.00,-21.60,26.9
2026/04/15 14:31:04.92,IMU,-14.65,-28.81,-1010.74,-0.40,1.44,1.73,-13.50,6.45,-20.55,26.7
2026/04/15 14:31:05.02,IMU,-18.07,-14.16,-1006.35,-1.83,1.73,2.22,-14.40,5.40,-21.45,26.7
2026/04/15 14:31:05.12,IMU,-25.88,-18.07,-1008.79,0.08,-2.34,0.22,-12.45,6.45,-20.85,26.8
2026/04/15 14:31:05.22,IMU,-20.51,-10.74,-1011.23,-0.43,0.28,0.69,-13.20,4.80,-20.85,26.7
2026/04/15 14:31:05.32,IMU,-21.48,-26.37,-1000.49,0.56,0.57,-2.49,-14.10,5.10,-20.70,26.7
2026/04/15 14:31:05.42,IMU,-21.00,-18.55,-1002.44,0.50,0.85,1.50,-14.25,4.80,-21.60,26.8
2026/04/15 14:31:05.52,IMU,-17.58,-30.27,-1017.58,-0.10,-0.32,-1.60,-13.20,4.50,-21.90,26.4
2026/04/15 14:31:05.62,IMU,-19.04,-19.04,-1012.21,0.73,-0.61,-1.08,-13.05,5.85,-21.45,27.0
2026/04/15 14:31:05.72,IMU,-22.46,-22.46,-1017.09,-0.34,-0.36,-0.07,-14.40,5.40,-21.00,26.7
2026/04/15 14:31:05.82,IMU,-15.63,-22.95,-1020.02,3.17,-0.78,-3.44,-12.60,6.15,-20.25,26.7
2026/04/15 14:31:05.92,IMU,-25.39,-28.81,-1024.90,0.50,-0.31,1.98,-13.50,4.80,-21.60,26.8
2026/04/15 14:31:06.02,IMU,-13.18,-19.53,-1011.23,-0.34,1.19,1.60,-12.45,4.80,-22.65,26.4
2026/04/15 14:31:06.12,IMU,-21.97,-29.79,-1029.30,0.86,-0.02,-0.46,-14.40,4.35,-21.75,26.8
2026/04/15 14:31:06.22,IMU,-10.74,-31.25,-1011.72,-0.38,0.28,1.31,-12.75,5.55,-21.15,26.9
2026/04/15 14:31:06.32,IMU,-13.67,-25.39,-1017.09,0.68,-0.90,1.60,-14.10,6.15,-21.45,26.6
2026/04/15 14:31:06.42,IMU,-35.64,-20.51,-1014.16,2.96,-0.20,-1.24,-12.00,3.75,-20.85,26.8
2026/04/15 14:31:06.52,IMU,-24.41,-27.83,-1005.86,2.08,0.04,0.40,-13.65,6.60,-21.45,26.8
2026/04/15 14:31:06.62,IMU,-23.44,-15.63,-1027.34,0.26,0.98,-1.54,-13.95,5.25,-21.90,26.8
2026/04/15 14:31:06.72,IMU,-12.70,-24.41,-998.05,-0.08,2.51,-1.23,-16.50,3.75,-18.30,26.7
2026/04/15 14:31:06.82,IMU,-20.02,-22.95,-1013.67,0.93,0.24,-0.89,-13.35,5.10,-21.75,26.5
2026/04/15 14:31:06.92,IMU,-10.74,-24.41,-1019.04,0.76,-0.21,-1.77,-14.25,5.55,-21.60,26.8
2026/04/15 14:31:07.02,IMU,-12.21,-18.07,-1007.81,0.56,0.63,1.60,-13.65,5.10,-22.05,27.0
2026/04/15 14:31:07.12,IMU,-18.07,-21.48,-1003.42,-0.34,0.40,-0.90,-13.20,5.55,-22.35,26.7
2026/04/15 14:31:07.22,IMU,-8.30,-35.64,-1008.30,1.43,-0.19,-4.36,-12.75,5.25,-21.15,26.7
2026/04/15 14:31:07.32,IMU,-24.41,-11.23,-1000.00,1.26,0.46,-1.66,-14.25,5.25,-21.90,26.7
2026/04/15 14:31:07.42,IMU,-16.11,-28.81,-1006.35,-0.74,0.22,0.04,-13.05,5.85,-23.25,26.9
2026/04/15 14:31:07.52,IMU,-16.60,-19.04,-1021.48,0.22,0.76,1.88,-11.85,5.10,-20.25,26.7
2026/04/15 14:31:07.62,IMU,-19.53,-25.39,-1014.16,0.57,-1.13,-0.33,-13.50,5.55,-21.90,26.8
2026/04/15 14:31:07.73,IMU,-14.65,-33.20,-1016.60,-0.15,1.19,-0.44,-13.65,2.70,-18.45,26.5
2026/04/15 14:31:07.83,IMU,-33.69,-28.81,-1006.84,-0.84,0.82,1.32,-13.05,5.10,-20.70,26.8
2026/04/15 14:31:07.93,IMU,-23.93,-16.60,-1016.60,-0.05,0.39,-1.24,-13.20,4.80,-20.85,26.8
2026/04/15 14:31:08.03,IMU,-26.86,-9.28,-1012.70,1.62,0.38,-0.03,-14.40,5.10,-21.45,26.8
2026/04/15 14:31:08.13,IMU,-14.16,-24.41,-1013.67,0.40,1.69,1.20,-12.45,4.80,-21.15,26.6
2026/04/15 14:31:08.23,IMU,-22.46,-18.07,-1026.86,-0.31,0.66,1.13,-14.10,5.40,-22.05,26.6
2026/04/15 14:31:08.33,IMU,-22.95,-21.00,-1008.79,0.79,0.80,-0.56,-13.50,6.45,-23.10,26.7
2026/04/15 14:31:08.43,IMU,-31.74,-23.44,-1022.95,1.48,1.89,1.10,-14.10,4.65,-21.45,26.8
2026/04/15 14:31:08.53,IMU,-14.65,-28.32,-1014.16,0.82,-0.05,0.47,-14.70,6.45,-20.85,26.8
2026/04/15 14:31:08.63,IMU,-25.88,-11.23,-1036.62,-0.60,-0.96,1.01,-13.35,5.40,-21.75,26.4
2026/04/15 14:31:08.73,IMU,-9.28,-30.27,-1018.55,-0.37,2.08,-0.29,-14.40,5.85,-21.00,26.8
2026/04/15 14:31:08.83,IMU,-24.90,-7.32,-1005.86,0.82,1.35,-0.91,-14.40,5.10,-21.00,26.8
2026/04/15 14:31:08.93,IMU,-24.41,-30.27,-1024.41,0.04,1.50,1.73,-14.85,6.60,-22.05,26.8
2026/04/15 14:31:09.03,IMU,-27.34,-12.70,-1030.76,0.38,-0.49,2.31,-12.45,5.25,-21.15,26.7
2026/04/15 14:31:09.13,IMU,-23.93,-24.41,-1012.21,-1.00,-0.24,2.58,-13.95,3.75,-21.60,26.8
2026/04/15 14:31:09.23,IMU,-23.93,-11.23,-1013.18,-0.47,0.04,1.70,-14.10,5.40,-21.75,26.8
2026/04/15 14:31:09.33,IMU,-19.04,-23.93,-1011.23,0.92,-0.66,1.56,-12.30,6.15,-21.45,26.8
2026/04/15 14:31:09.43,IMU,-13.67,-27.34,-1018.07,1.69,0.09,-1.90,-13.65,5.85,-20.25,26.9
2026/04/15 14:31:09.53,IMU,-22.95,-17.58,-1015.14,0.45,1.28,1.69,-14.25,5.25,-20.85,26.7
2026/04/15 14:31:09.63,IMU,-18.55,-16.11,-1014.16,0.87,-0.02,-1.20,-14.85,5.40,-21.45,26.5
2026/04/15 14:31:09.73,IMU,-18.55,-30.76,-1024.41,0.24,0.28,0.54,-11.70,5.25,-21.60,26.7
2026/04/15 14:31:09.84,IMU,-27.83,-26.86,-1009.77,0.29,0.21,1.05,-14.10,5.40,-22.50,26.9
2026/04/15 14:31:09.94,IMU,-11.72,-21.97,-1018.07,2.18,0.56,2.25,-13.05,5.40,-22.50,26.5
2026/04/15 14:31:10.04,IMU,-18.55,-21.00,-1014.65,-0.13,1.60,-3.16,-12.45,4.80,-23.10,26.8
2026/04/15 14:31:10.14,IMU,-26.86,-22.46,-1008.30,1.00,0.47,1.21,-13.50,6.45,-20.55,26.9
2026/04/15 14:31:10.24,IMU,-33.69,-20.02,-1023.44,-0.51,1.71,-0.40,-13.95,4.05,-21.60,26.8
2026/04/15 14:31:10.34,IMU,-14.16,-20.02,-1010.74,-0.32,1.55,-0.11,-12.75,4.80,-23.40,26.7
2026/04/15 14:31:10.44,IMU,-24.90,-26.86,-1014.16,0.94,0.43,0.47,-13.35,6.90,-22.05,26.8
2026/04/15 14:31:10.54,IMU,-16.11,-13.18,-1009.28,1.25,-1.31,-0.33,-13.35,5.10,-21.00,26.7
2026/04/15 14:31:10.64,IMU,-18.07,-9.77,-1008.30,0.72,-1.60,0.34,-12.30,5.40,-21.45,26.8
2026/04/15 14:31:10.74,IMU,-22.95,-30.27,-1010.74,-0.26,0.44,1.36,-13.65,5.40,-21.75,26.7
2026/04/15 14:31:10.84,IMU,-16.11,-26.86,-1001.95,0.08,0.19,-0.18,-12.60,5.10,-22.05,26.6
2026/04/15 14:31:10.94,IMU,-17.58,-16.60,-1003.91,-1.05,1.11,-1.29,-15.45,6.45,-20.55,27.0
2026/04/15 14:31:11.04,IMU,-31.25,-32.71,-1017.58,-0.11,2.21,-3.34,-13.50,5.55,-21.90,26.8
2026/04/15 14:31:11.14,IMU,-16.11,-27.34,-1008.30,1.35,0.68,0.50,-14.10,4.35,-22.50,26.7
2026/04/15 14:31:11.24,IMU,-20.51,-29.30,-1010.25,0.23,1.21,-0.67,-12.75,5.55,-21.15,27.0
2026/04/15 14:31:11.34,IMU,-20.51,-20.02,-1022.95,0.24,0.28,0.53,-15.45,4.50,-21.60,26.8
2026/04/15 14:31:11.44,IMU,-10.74,-23.93,-1019.53,1.07,0.11,2.05,-13.20,4.05,-20.85,26.9
2026/04/15 14:31:11.54,IMU,-15.14,-32.71,-1023.44,0.15,1.76,0.77,-13.20,3.75,-21.15,26.6
2026/04/15 14:31:11.64,IMU,-18.55,-18.55,-1019.04,0.21,-0.28,-1.03,-13.05,6.60,-21.00,26.6
2026/04/15 14:31:11.74,IMU,-23.93,-14.16,-1009.77,-0.20,-2.08,0.50,-14.40,5.85,-21.75,26.8
2026/04/15 14:31:11.84,IMU,-12.70,-29.30,-1019.04,-0.21,0.22,-0.31,-12.60,5.40,-22.05,26.8
2026/04/15 14:31:11.94,IMU,-28.32,-30.27,-1028.32,-0.66,1.34,0.47,-13.50,5.25,-21.60,26.4
2026/04/15 14:31:12.04,IMU,-30.76,-9.77,-1009.28,-0.27,-1.20,0.24,-13.50,4.50,-21.60,26.6
2026/04/15 14:31:12.14,IMU,-30.76,-16.11,-1017.09,0.28,-0.50,-0.18,-13.50,5.25,-20.55,26.7
2026/04/15 14:31:12.24,IMU,-21.48,-16.11,-1009.77,1.59,1.54,0.57,-13.05,4.35,-22.05,26.5
2026/04/15 14:31:12.34,IMU,-15.63,-19.53,-1021.00,1.42,1.68,-0.60,-12.30,5.85,-19.95,26.8
2026/04/15 14:31:12.44,IMU,-22.95,-17.58,-1022.46,0.47,0.90,-2.82,-13.20,4.80,-21.15,26.8
2026/04/15 14:31:12.54,IMU,-15.63,-15.14,-1017.09,0.84,2.27,-1.06,-12.45,6.00,-21.90,26.8
2026/04/15 14:31:12.64,IMU,-24.41,-22.46,-1021.00,0.92,-0.37,2.15,-14.40,5.40,-21.45,26.8
2026/04/15 14:31:12.74,IMU,-23.93,-29.79,-1026.86,0.10,0.72,-2.65,-13.65,5.40,-22.80,26.7
2026/04/15 14:31:12.85,IMU,-17.09,-13.18,-1012.70,-0.53,-0.08,0.08,-12.60,6.15,-21.75,26.7
2026/04/15 14:31:12.95,IMU,-23.44,-26.37,-1005.37,-0.96,1.89,0.11,-14.25,7.20,-21.90,26.8
2026/04/15 14:31:13.05,IMU,-18.07,-14.16,-1002.93,1.08,1.18,-1.73,-13.35,5.40,-19.95,26.6
2026/04/15 14:31:13.15,IMU,-20.02,-21.97,-999.51,0.82,1.98,1.48,-13.50,5.25,-21.15,26.5
2026/04/15 14:31:13.25,IMU,-28.32,-9.77,-1018.07,1.21,0.10,-1.46,-13.95,5.25,-22.65,26.7
2026/04/15 14:31:13.35,IMU,-24.90,-14.65,-1015.63,2.26,1.23,-2.85,-14.10,5.10,-21.00,26.9
2026/04/15 14:31:13.45,IMU,-15.63,-19.53,-1019.53,0.83,2.25,0.29,-13.35,6.15,-22.50,26.8
2026/04/15 14:31:13.55,IMU,-27.34,-19.04,-1005.86,0.89,-1.36,1.28,-13.95,5.55,-21.60,26.6
2026/04/15 14:31:13.65,IMU,-24.41,-18.07,-1006.84,-0.08,1.97,-0.15,-12.75,5.55,-21.90,26.7
2026/04/15 14:31:13.75,IMU,-24.41,-18.55,-1009.28,-0.37,2.24,2.50,-13.65,6.15,-21.75,26.7
2026/04/15 14:31:13.85,IMU,-30.76,-28.32,-1014.16,-0.34,0.35,0.20,-15.15,4.35,-19.20,26.8
2026/04/15 14:31:13.95,IMU,-13.18,-28.81,-1029.79,-0.16,-0.43,2.34,-14.70,4.80,-21.60,26.9
2026/04/15 14:31:14.05,IMU,-22.46,-26.86,-1006.84,0.70,0.88,-2.99,-14.10,5.85,-21.00,26.7
2026/04/15 14:31:14.15,IMU,-40.04,-30.76,-1020.02,1.60,0.48,-0.15,-14.40,5.10,-22.05,26.7
2026/04/15 14:31:14.25,IMU,-31.25,-21.97,-1021.48,0.87,-0.91,1.03,-13.65,6.15,-20.70,26.5
2026/04/15 14:31:14.35,IMU,-34.18,-27.83,-1005.37,1.03,-1.84,-0.09,-13.65,6.90,-21.45,26.8
2026/04/15 14:31:14.45,IMU,-39.55,-30.27,-1011.72,-1.35,-1.20,-0.93,-14.10,5.10,-21.45,26.8
2026/04/15 14:31:14.55,IMU,-19.53,-17.58,-1004.88,1.10,1.00,1.03,-14.10,5.40,-20.70,27.0
2026/04/15 14:31:14.65,IMU,-19.53,-21.00,-1011.23,0.69,1.33,1.33,-13.05,6.60,-21.45,26.8
2026/04/15 14:31:14.75,IMU,-22.46,-19.53,-1010.74,1.23,0.26,-3.31,-14.85,5.85,-20.70,26.8
2026/04/15 14:31:14.85,IMU,-26.37,-26.37,-1026.37,-0.75,1.38,-1.58,-16.50,4.05,-19.05,26.7
2026/04/15 14:31:14.95,IMU,-19.04,-16.11,-1013.18,0.53,0.16,4.44,-13.05,5.85,-21.75,26.8
2026/04/15 14:31:15.05,IMU,-36.13,-26.86,-1019.53,0.08,2.02,-0.86,-14.70,5.25,-21.60,26.9
2026/04/15 14:31:15.15,IMU,-25.39,-14.65,-1005.86,0.89,0.58,-2.81,-13.20,4.05,-20.85,26.6
2026/04/15 14:31:15.25,IMU,-34.18,-19.04,-1007.81,1.71,0.95,-0.71,-12.60,6.15,-19.65,26.7
2026/04/15 14:31:15.35,IMU,-29.30,-27.34,-1007.81,0.21,2.14,-0.79,-13.50,4.05,-20.85,26.7
2026/04/15 14:31:15.45,IMU,-23.44,-31.74,-1011.23,1.73,-0.07,1.52,-13.50,6.00,-23.40,26.5
2026/04/15 14:31:15.55,IMU,-22.95,-30.76,-1012.21,0.81,1.04,-0.15,-14.10,6.90,-22.80,26.8
2026/04/15 14:31:15.65,IMU,-18.07,-20.02,-1017.09,0.65,0.82,-1.03,-13.50,5.55,-21.60,26.5
2026/04/15 14:31:15.75,IMU,-16.11,-16.11,-1018.55,0.28,-3.06,0.16,-12.75,6.00,-21.60,26.8
2026/04/15 14:31:15.85,IMU,-16.11,-24.41,-1016.60,0.29,1.19,-0.32,-17.25,2.55,-16.20,26.6
2026/04/15 14:31:15.96,IMU,-18.07,-17.09,-1011.72,0.76,-0.14,-0.77,-13.05,5.85,-20.70,26.8
2026/04/15 14:31:16.06,IMU,-23.44,-28.81,-1011.72,1.80,-1.69,-0.79,-12.75,4.50,-22.35,26.3
2026/04/15 14:31:16.16,IMU,-27.34,-11.72,-1016.60,-0.36,0.34,-3.12,-13.35,5.10,-21.45,26.8
2026/04/15 14:31:16.26,IMU,-26.86,-22.95,-1014.16,-0.70,0.83,-0.43,-13.05,5.10,-21.45,26.7
2026/04/15 14:31:16.36,IMU,-7.81,-22.95,-1008.79,-0.91,-0.44,1.44,-12.45,5.25,-21.15,26.7
2026/04/15 14:31:16.46,IMU,-24.41,-7.32,-1022.95,-0.21,-0.82,-0.05,-12.75,5.25,-21.60,26.6
2026/04/15 14:31:16.56,IMU,-33.20,-21.48,-1018.55,0.34,0.94,0.50,-13.95,6.00,-20.85,26.8
2026/04/15 14:31:16.66,IMU,-17.58,-20.02,-1028.32,1.76,-0.11,2.39,-13.65,5.40,-21.45,26.7
2026/04/15 14:31:16.76,IMU,-34.18,-24.41,-1019.53,0.50,-1.00,0.92,-13.05,5.40,-21.45,26.7
2026/04/15 14:31:16.87,IMU,-19.04,-15.63,-1017.09,-0.37,-0.51,0.00,-14.40,5.40,-21.75,26.7
2026/04/15 14:31:16.97,IMU,-29.30,-27.83,-1007.32,1.54,1.40,-0.80,-13.20,5.55,-21.60,26.8
2026/04/15 14:31:17.07,IMU,-28.32,-21.00,-1026.86,-0.18,-0.05,-0.79,-13.35,6.60,-22.80,26.7
2026/04/15 14:31:17.17,IMU,-25.88,-9.77,-1018.55,0.35,0.67,0.83,-14.40,6.90,-22.05,26.8
2026/04/15 14:31:17.27,IMU,-8.79,-6.35,-1020.02,0.66,4.59,-0.69,-13.05,6.90,-21.75,26.6
2026/04/15 14:31:17.37,IMU,-26.37,-23.44,-1014.65,0.26,-1.92,0.73,-14.25,5.55,-21.60,26.5
2026/04/15 14:31:17.47,IMU,-17.09,-21.00,-1019.04,1.34,1.03,0.73,-13.35,4.65,-21.45,26.8
2026/04/15 14:31:17.57,IMU,-20.02,-21.48,-1019.53,0.43,1.59,1.09,-13.05,5.40,-21.45,26.9
2026/04/15 14:31:17.67,IMU,-15.14,-15.14,-1009.77,1.75,0.09,0.96,-13.95,6.45,-20.85,26.8
2026/04/15 14:31:17.77,IMU,-31.74,-19.04,-1021.00,1.56,1.80,-0.85,-12.60,5.10,-20.25,26.4
2026/04/15 14:31:17.87,IMU,-38.57,-21.00,-1028.32,1.05,1.34,0.05,-13.35,6.15,-21.75,26.8
2026/04/15 14:31:17.97,IMU,-22.95,-26.37,-1008.79,0.79,0.73,-4.11,-13.20,4.80,-21.60,26.6
2026/04/15 14:31:18.07,IMU,-35.64,-16.11,-1031.25,1.11,0.22,-0.92,-13.65,5.40,-21.45,26.8
2026/04/15 14:31:18.17,IMU,-17.09,-23.44,-1016.60,0.57,2.29,1.69,-13.95,5.55,-20.10,26.5
2026/04/15 14:31:18.27,IMU,-27.83,-29.79,-1009.28,0.35,0.10,0.96,-14.25,4.50,-21.15,26.7
2026/04/15 14:31:18.37,IMU,-23.93,-19.04,-1014.16,-0.39,1.50,1.93,-13.95,4.80,-20.10,26.9
2026/04/15 14:31:18.47,IMU,-18.07,-24.90,-1017.58,0.82,0.58,-0.18,-14.10,5.85,-21.00,26.6
2026/04/15 14:31:18.57,IMU,-18.07,-32.71,-1015.14,-2.05,-0.07,1.03,-14.10,5.40,-20.70,26.8
2026/04/15 14:31:18.67,IMU,-11.23,-11.23,-1018.07,1.48,1.00,-3.50,-14.10,5.40,-21.00,26.7
2026/04/15 14:31:18.77,IMU,-20.51,-30.27,-1008.30,0.60,0.53,0.07,-13.50,5.25,-21.90,26.7
2026/04/15 14:31:18.87,IMU,-15.63,-30.27,-1026.86,0.40,0.47,0.73,-13.05,6.15,-21.00,26.6
2026/04/15 14:31:18.97,IMU,-16.60,-19.53,-1013.18,-0.11,-0.07,-1.21,-13.35,5.40,-20.25,26.9
2026/04/15 14:31:19.07,IMU,-22.46,-29.79,-1027.83,0.78,-0.31,-2.83,-13.95,5.55,-21.15,26.8
2026/04/15 14:31:19.17,IMU,-16.11,-19.53,-1000.00,-0.64,2.00,1.93,-13.35,5.40,-21.45,26.7
2026/04/15 14:31:19.27,IMU,-33.20,-25.88,-1022.95,0.07,0.85,-0.08,-12.75,5.25,-21.15,26.5
2026/04/15 14:31:19.37,IMU,-17.58,-19.04,-1030.27,0.35,1.14,0.09,-13.35,5.10,-21.45,26.5
2026/04/15 14:31:19.47,IMU,-27.83,-28.32,-1016.11,0.40,1.44,-2.85,-15.00,5.25,-21.60,26.8
2026/04/15 14:31:19.57,IMU,-19.53,-3.91,-1016.11,-0.74,2.03,-2.74,-14.40,6.60,-21.45,26.6
2026/04/15 14:31:19.67,IMU,-20.51,-24.41,-1023.93,0.86,0.31,-1.02,-13.65,5.40,-21.00,26.9
2026/04/15 14:31:19.78,IMU,-13.67,-23.93,-1009.77,-2.40,0.66,-0.09,-13.05,5.40,-20.70,26.8
2026/04/15 14:31:19.88,IMU,-15.63,-27.34,-1021.48,-0.54,1.29,-0.19,-13.35,4.35,-21.75,26.7
2026/04/15 14:31:19.98,IMU,-20.51,-20.51,-1018.55,0.27,0.66,-0.38,-13.35,5.10,-20.25,26.8
2026/04/15 14:31:20.08,IMU,-31.25,-24.90,-1006.35,-0.03,0.27,-1.80,-12.45,4.80,-22.35,26.8
2026/04/15 14:31:20.18,IMU,-20.02,-29.79,-1013.18,0.18,0.01,0.92,-13.05,5.40,-22.80,26.7
2026/04/15 14:31:20.28,IMU,-13.67,-16.60,-1005.37,0.61,0.32,-0.60,-14.10,5.10,-20.25,26.4
2026/04/15 14:31:20.38,IMU,-31.74,-18.55,-1019.53,-0.43,-0.82,1.57,-13.95,5.25,-21.15,26.8
2026/04/15 14:31:20.48,IMU,-12.21,-17.09,-1010.74,1.42,-0.99,0.60,-13.65,6.60,-21.45,26.8
2026/04/15 14:31:20.58,IMU,-20.51,-16.60,-993.16,-0.04,0.66,-0.39,-13.05,6.90,-20.25,26.6
2026/04/15 14:31:20.68,IMU,-17.58,-16.11,-1014.16,-0.79,-1.22,-2.50,-13.35,4.65,-21.00,26.7
2026/04/15 14:31:20.78,IMU,-23.44,-16.11,-1017.58,1.28,1.84,-0.60,-12.60,5.85,-21.00,27.0
2026/04/15 14:31:20.88,IMU,-15.63,-24.41,-1018.07,-0.55,-0.69,0.87,-12.75,5.55,-21.90,26.8
2026/04/15 14:31:20.98,IMU,-17.58,-20.02,-1021.48,-0.23,0.40,-2.07,-14.10,4.35,-21.45,26.8
2026/04/15 14:31:21.08,IMU,-17.58,-30.76,-1013.67,-1.15,1.34,0.56,-14.10,5.40,-21.45,26.5
2026/04/15 14:31:21.18,IMU,-21.00,-30.76,-1018.07,0.27,1.05,-0.92,-12.30,6.15,-21.45,26.7
2026/04/15 14:31:21.28,IMU,-31.74,-19.04,-1018.07,0.17,-1.27,1.62,-14.40,4.65,-21.00,26.8
2026/04/15 14:31:21.38,IMU,-24.90,-23.93,-1016.60,0.27,1.96,1.17,-12.30,5.85,-21.75,26.8
2026/04/15 14:31:21.48,IMU,-22.95,-9.77,-1020.51,0.32,-1.58,0.38,-13.05,4.65,-22.05,26.8
2026/04/15 14:31:21.58,IMU,-27.34,-18.07,-1026.86,0.96,0.34,0.38,-13.65,5.85,-21.75,26.7
2026/04/15 14:31:21.68,IMU,-19.04,-22.95,-1018.55,-0.55,1.86,0.54,-13.50,4.05,-21.15,26.9
2026/04/15 14:31:21.78,IMU,-25.88,-21.97,-1022.95,0.98,1.60,0.85,-12.75,6.45,-22.35,26.9
2026/04/15 14:31:21.88,IMU,-21.97,-13.67,-1019.04,-0.52,-0.03,1.18,-13.20,6.00,-22.35,26.7
2026/04/15 14:31:21.98,IMU,-14.16,-31.25,-1002.44,2.49,1.50,0.85,-13.65,5.10,-23.25,26.7
2026/04/15 14:31:22.08,IMU,-34.67,-23.44,-1012.21,-0.72,2.15,3.57,-13.95,5.25,-21.90,26.8
2026/04/15 14:31:22.18,IMU,-4.88,-17.09,-1007.32,-0.40,0.39,-1.89,-13.35,5.85,-21.75,26.7
2026/04/15 14:31:22.28,IMU,-27.83,-31.74,-1006.35,0.47,0.59,0.00,-13.05,6.15,-21.75,26.5
2026/04/15 14:31:22.38,IMU,-17.58,-12.70,-1009.77,0.66,1.24,-1.94,-13.50,5.55,-20.55,26.9
2026/04/15 14:31:22.48,IMU,-20.02,-16.60,-1016.11,-0.18,2.38,4.18,-13.95,5.55,-21.60,26.7
2026/04/15 14:31:22.58,IMU,-12.70,-25.88,-1018.07,0.63,-0.96,-1.23,-12.00,6.00,-21.15,26.8
2026/04/15 14:31:22.68,IMU,-30.27,-14.65,-1014.16,-0.88,-0.02,-0.36,-12.30,5.10,-21.75,26.6
2026/04/15 14:31:22.78,IMU,-12.70,-28.32,-1011.72,0.20,-0.24,1.24,-14.70,4.80,-21.15,26.8
2026/04/15 14:31:22.88,IMU,-22.46,-25.88,-1007.81,0.08,-0.13,-3.45,-14.70,5.55,-20.85,26.8
2026/04/15 14:31:22.99,IMU,-13.18,-21.00,-1019.04,0.22,0.38,0.64,-13.05,5.10,-21.45,26.7
2026/04/15 14:31:23.09,IMU,-33.20,-23.44,-1023.44,0.40,0.93,-0.77,-13.20,4.80,-20.55,26.6
2026/04/15 14:31:23.19,IMU,-17.58,-23.93,-1010.74,0.74,-1.87,1.50,-14.40,5.10,-21.45,26.8
2026/04/15 14:31:23.29,IMU,-19.53,-13.18,-1025.88,0.40,0.40,0.34,-14.25,4.05,-21.60,26.8
2026/04/15 14:31:23.39,IMU,-20.51,-25.88,-1005.37,1.47,0.62,1.28,-13.35,6.15,-21.00,26.8
2026/04/15 14:31:23.49,IMU,-27.34,-25.88,-1016.11,-0.82,0.39,3.23,-13.20,6.00,-22.35,27.0
2026/04/15 14:31:23.59,IMU,-26.86,-18.07,-1010.25,-0.12,-1.53,0.07,-14.10,5.40,-20.70,26.7
2026/04/15 14:31:23.69,IMU,-22.46,-11.23,-1002.44,-0.27,0.40,-2.12,-13.65,6.15,-21.45,26.8
2026/04/15 14:31:23.79,IMU,-17.58,-16.60,-1013.18,-0.09,-0.46,-0.30,-13.65,6.60,-21.45,26.8
2026/04/15 14:31:23.89,IMU,-13.18,-20.51,-1027.34,0.83,-2.54,-3.08,-13.95,6.45,-21.90,26.7
2026/04/15 14:31:23.99,IMU,-23.93,-25.39,-1019.53,0.50,-2.21,-1.68,-15.60,3.60,-18.15,26.8
2026/04/15 14:31:24.09,IMU,-21.97,-15.14,-1013.18,1.56,-1.58,-2.18,-13.65,5.40,-21.45,26.6
2026/04/15 14:31:24.19,IMU,-20.51,-27.83,-1013.18,1.56,0.04,-0.89,-14.10,6.90,-22.50,26.7
2026/04/15 14:31:24.29,IMU,-20.02,-30.27,-1005.86,-1.05,1.79,1.12,-13.20,5.25,-22.35,26.8
2026/04/15 14:31:24.39,IMU,-29.79,-29.79,-1016.60,-1.18,1.25,2.13,-13.20,6.00,-21.60,26.6
2026/04/15 14:31:24.49,IMU,-30.27,-31.74,-1009.77,0.94,2.01,-0.28,-13.20,5.55,-22.35,26.7
2026/04/15 14:31:24.59,IMU,-26.37,-29.79,-1025.88,0.47,-0.08,-1.37,-14.70,5.55,-20.10,26.8
2026/04/15 14:31:24.69,IMU,-28.81,-20.51,-1026.86,0.67,-0.11,-1.67,-14.10,6.15,-20.70,26.8
2026/04/15 14:31:24.79,IMU,-15.63,-21.48,-1005.86,0.07,-0.66,0.15,-14.25,4.50,-21.60,26.9
2026/04/15 14:31:24.89,IMU,-22.46,-28.81,-1013.67,-0.83,1.18,2.22,-13.50,6.45,-22.35,26.7
